[{"view_history":"[{\"page_index\":0,\"viewing_time\":10088.055000058375},{\"page_index\":1,\"viewing_time\":8163.784999982454},{\"page_index\":2,\"viewing_time\":11807.999999960884},{\"page_index\":3,\"viewing_time\":13960.485000046901},{\"page_index\":4,\"viewing_time\":31807.414999930188},{\"page_index\":5,\"viewing_time\":7736.065000062808},{\"page_index\":6,\"viewing_time\":4939.684999990277}]","rt":88504.29499999154,"trial_type":"instructions","trial_index":0,"time_elapsed":88507,"internal_node_id":"0.0-0.0"},{"type":"hand_comparison","hand_win":"h_1_0_2_1","hand_lose":"h_3_0_0_0","explanation":"Adjacent cards beat non-adjacent.","hand_indices":[1,0],"hand_choice":1,"correct":true,"rt":7250,"trial_type":"hand_comparison","trial_index":1,"time_elapsed":97766,"internal_node_id":"0.0-1.0"},{"type":"hand_comparison","hand_win":"h_0_0_1_0","hand_lose":"h_3_0_2_1","explanation":"Same-suit adjacent beats different suit.","hand_indices":[0,1],"hand_choice":0,"correct":true,"rt":5804,"trial_type":"hand_comparison","trial_index":2,"time_elapsed":105572,"internal_node_id":"0.0-2.0"},{"type":"hand_comparison","hand_win":"h_3_0_0_1","hand_lose":"h_2_0_2_1","explanation":"Highest card breaks ties.","hand_indices":[0,1],"hand_choice":0,"correct":true,"rt":6746,"trial_type":"hand_comparison","trial_index":3,"time_elapsed":114321,"internal_node_id":"0.0-3.0"},{"type":"hand_comparison","hand_win":"h_3_1_2_1","hand_lose":"h_2_0_3_0","explanation":"Black cards beat red cards if the numbers are tied.","hand_indices":[1,0],"hand_choice":1,"correct":true,"rt":6382,"trial_type":"hand_comparison","trial_index":4,"time_elapsed":122704,"internal_node_id":"0.0-4.0"},{"rt":5521.029999945313,"stimulus":"<p><b>Congratulations, you passed the test, and will get to proceed to phase 2!</b></p><p>You have earned a $1.50 bonus, and will be awarded a performance bonus based on your bets in the next phase.</p><p>Press any key to continue.</p>","key_press":32,"trial_type":"html-keyboard-response","trial_index":5,"time_elapsed":128227,"internal_node_id":"0.0-5.0"},{"rt":8896.519999951124,"stimulus":"<p>Now you get to play a few hands. After you bet, we'll show you your opponent's hand and how much you won (or lost), and at the end of these hands we'll tell you your total earnings.</p><p>Press any key to continue.</p>","key_press":32,"trial_type":"html-keyboard-response","trial_index":6,"time_elapsed":137125,"internal_node_id":"0.0-6.0"},{"type":"card_game","game_type":"straight_flush","losers":false,"see_result":true,"my_hand":"h_2_0_3_0","opponent_hand":"h_1_1_0_1","win":true,"tie":false,"bet":1,"earnings":5,"expected_value":0.90625,"expected_earnings":4.53125,"bet_rt":11490,"block":1,"trial_type":"card_game","trial_index":7,"time_elapsed":150200,"internal_node_id":"0.0-7.0"},{"type":"card_game","game_type":"straight_flush","losers":false,"see_result":true,"my_hand":"h_2_1_3_1","opponent_hand":"h_3_0_1_1","win":true,"tie":false,"bet":0,"earnings":0,"expected_value":0.96875,"expected_earnings":0,"bet_rt":5924,"block":1,"trial_type":"card_game","trial_index":8,"time_elapsed":157673,"internal_node_id":"0.0-8.0"},{"type":"card_game","game_type":"straight_flush","losers":false,"see_result":true,"my_hand":"h_2_1_3_0","opponent_hand":"h_3_1_3_0","win":true,"tie":false,"bet":1,"earnings":5,"expected_value":0.53125,"expected_earnings":2.65625,"bet_rt":6026,"block":1,"trial_type":"card_game","trial_index":9,"time_elapsed":165261,"internal_node_id":"0.0-9.0"},{"type":"card_game","game_type":"straight_flush","losers":false,"see_result":true,"my_hand":"h_3_1_3_1","opponent_hand":"h_1_1_2_1","win":false,"tie":false,"bet":0,"earnings":0,"expected_value":0.234375,"expected_earnings":0,"bet_rt":2386,"block":1,"trial_type":"card_game","trial_index":10,"time_elapsed":169193,"internal_node_id":"0.0-10.0"},{"type":"card_game","game_type":"straight_flush","losers":false,"see_result":true,"my_hand":"h_3_1_0_1","opponent_hand":"h_0_1_2_1","win":true,"tie":false,"bet":0,"earnings":0,"expected_value":-0.15625,"expected_earnings":0,"bet_rt":1785,"block":1,"trial_type":"card_game","trial_index":11,"time_elapsed":172538,"internal_node_id":"0.0-11.0"},{"type":"card_game","game_type":"straight_flush","losers":false,"see_result":true,"my_hand":"h_0_0_0_1","opponent_hand":"h_3_0_0_0","win":false,"tie":false,"bet":0,"earnings":0,"expected_value":-0.9375,"expected_earnings":0,"bet_rt":5203,"block":1,"trial_type":"card_game","trial_index":12,"time_elapsed":179290,"internal_node_id":"0.0-12.0"},{"type":"card_game","game_type":"straight_flush","losers":false,"see_result":true,"my_hand":"h_2_1_1_1","opponent_hand":"h_3_0_3_1","win":true,"tie":false,"bet":2,"earnings":10,"expected_value":0.84375,"expected_earnings":8.4375,"bet_rt":1345,"block":1,"trial_type":"card_game","trial_index":13,"time_elapsed":182180,"internal_node_id":"0.0-13.0"},{"type":"card_game","game_type":"straight_flush","losers":false,"see_result":true,"my_hand":"h_2_0_1_0","opponent_hand":"h_2_0_0_1","win":true,"tie":false,"bet":2,"earnings":10,"expected_value":0.78125,"expected_earnings":7.8125,"bet_rt":1486,"block":1,"trial_type":"card_game","trial_index":14,"time_elapsed":185213,"internal_node_id":"0.0-14.0"},{"type":"card_game","game_type":"straight_flush","losers":false,"see_result":true,"my_hand":"h_1_0_1_0","opponent_hand":"h_3_0_1_1","win":false,"tie":false,"bet":0,"earnings":0,"expected_value":-0.859375,"expected_earnings":0,"bet_rt":2565,"block":1,"trial_type":"card_game","trial_index":15,"time_elapsed":189330,"internal_node_id":"0.0-15.0"},{"type":"card_game","game_type":"straight_flush","losers":false,"see_result":true,"my_hand":"h_2_0_0_1","opponent_hand":"h_0_0_1_0","win":false,"tie":false,"bet":0,"earnings":0,"expected_value":-0.65625,"expected_earnings":0,"bet_rt":3725,"block":1,"trial_type":"card_game","trial_index":16,"time_elapsed":194604,"internal_node_id":"0.0-16.0"},{"type":"card_game","game_type":"straight_flush","losers":false,"see_result":true,"my_hand":"h_0_1_3_0","opponent_hand":"h_3_1_1_0","win":false,"tie":false,"bet":0,"earnings":0,"expected_value":-0.28125,"expected_earnings":0,"bet_rt":1530,"block":1,"trial_type":"card_game","trial_index":17,"time_elapsed":197698,"internal_node_id":"0.0-17.0"},{"type":"card_game","game_type":"straight_flush","losers":false,"see_result":true,"my_hand":"h_3_1_2_0","opponent_hand":"h_0_1_0_0","win":true,"tie":false,"bet":1,"earnings":5,"expected_value":0.59375,"expected_earnings":2.96875,"bet_rt":2557,"block":1,"trial_type":"card_game","trial_index":18,"time_elapsed":201804,"internal_node_id":"0.0-18.0"},{"type":"card_game","game_type":"straight_flush","losers":false,"see_result":true,"my_hand":"h_1_1_1_0","opponent_hand":"h_2_0_3_1","win":false,"tie":false,"bet":0,"earnings":0,"expected_value":-0.8125,"expected_earnings":0,"bet_rt":1775,"block":1,"trial_type":"card_game","trial_index":19,"time_elapsed":205133,"internal_node_id":"0.0-19.0"},{"type":"card_game","game_type":"straight_flush","losers":false,"see_result":true,"my_hand":"h_2_0_2_0","opponent_hand":"h_2_1_3_0","win":false,"tie":false,"bet":0,"earnings":0,"expected_value":-0.484375,"expected_earnings":0,"bet_rt":1477,"block":1,"trial_type":"card_game","trial_index":20,"time_elapsed":208158,"internal_node_id":"0.0-20.0"},{"type":"card_game","game_type":"straight_flush","losers":false,"see_result":true,"my_hand":"h_1_0_2_1","opponent_hand":"h_2_1_3_0","win":false,"tie":false,"bet":2,"earnings":-10,"expected_value":0.46875,"expected_earnings":4.6875,"bet_rt":1560,"block":1,"trial_type":"card_game","trial_index":21,"time_elapsed":211265,"internal_node_id":"0.0-21.0"},{"type":"card_game","game_type":"straight_flush","losers":false,"see_result":true,"my_hand":"h_1_0_3_1","opponent_hand":"h_1_1_3_0","win":true,"tie":false,"bet":0,"earnings":0,"expected_value":0.03125,"expected_earnings":0,"bet_rt":2609,"block":1,"trial_type":"card_game","trial_index":22,"time_elapsed":215428,"internal_node_id":"0.0-22.0"},{"type":"card_game","game_type":"straight_flush","losers":false,"see_result":true,"my_hand":"h_1_0_0_0","opponent_hand":"h_1_0_1_0","win":true,"tie":false,"bet":2,"earnings":10,"expected_value":0.65625,"expected_earnings":6.5625,"bet_rt":2778,"block":1,"trial_type":"card_game","trial_index":23,"time_elapsed":219750,"internal_node_id":"0.0-23.0"},{"type":"card_game","game_type":"straight_flush","losers":false,"see_result":true,"my_hand":"h_0_0_0_0","opponent_hand":"h_1_1_1_1","win":false,"tie":false,"bet":0,"earnings":0,"expected_value":-0.984375,"expected_earnings":0,"bet_rt":1336,"block":1,"trial_type":"card_game","trial_index":24,"time_elapsed":222637,"internal_node_id":"0.0-24.0"},{"type":"card_game","game_type":"straight_flush","losers":false,"see_result":true,"my_hand":"h_3_0_1_0","opponent_hand":"h_1_0_1_0","win":true,"tie":false,"bet":0,"earnings":0,"expected_value":-0.09375,"expected_earnings":0,"bet_rt":2099,"block":1,"trial_type":"card_game","trial_index":25,"time_elapsed":226279,"internal_node_id":"0.0-25.0"},{"type":"card_game","game_type":"straight_flush","losers":false,"see_result":true,"my_hand":"h_2_1_0_1","opponent_hand":"h_3_1_3_1","win":false,"tie":false,"bet":0,"earnings":0,"expected_value":-0.53125,"expected_earnings":0,"bet_rt":2719,"block":1,"trial_type":"card_game","trial_index":26,"time_elapsed":230551,"internal_node_id":"0.0-26.0"},{"type":"card_game","game_type":"straight_flush","losers":false,"see_result":true,"my_hand":"h_3_0_1_0","opponent_hand":"h_2_0_2_0","win":true,"tie":false,"bet":0,"earnings":0,"expected_value":-0.09375,"expected_earnings":0,"bet_rt":1404,"block":1,"trial_type":"card_game","trial_index":27,"time_elapsed":233513,"internal_node_id":"0.0-27.0"},{"type":"card_game","game_type":"straight_flush","losers":false,"see_result":true,"my_hand":"h_3_0_3_1","opponent_hand":"h_3_1_2_0","win":false,"tie":false,"bet":0,"earnings":0,"expected_value":0.1875,"expected_earnings":0,"bet_rt":1793,"block":1,"trial_type":"card_game","trial_index":28,"time_elapsed":236851,"internal_node_id":"0.0-28.0"},{"type":"card_game","game_type":"straight_flush","losers":false,"see_result":true,"my_hand":"h_0_0_2_0","opponent_hand":"h_1_1_0_0","win":false,"tie":false,"bet":1,"earnings":-5,"expected_value":-0.71875,"expected_earnings":-3.59375,"bet_rt":1591,"block":1,"trial_type":"card_game","trial_index":29,"time_elapsed":239988,"internal_node_id":"0.0-29.0"},{"type":"card_game","game_type":"straight_flush","losers":false,"see_result":true,"my_hand":"h_2_0_2_0","opponent_hand":"h_0_1_2_1","win":true,"tie":false,"bet":0,"earnings":0,"expected_value":-0.484375,"expected_earnings":0,"bet_rt":1270,"block":1,"trial_type":"card_game","trial_index":30,"time_elapsed":242806,"internal_node_id":"0.0-30.0"},{"type":"card_game","game_type":"straight_flush","losers":false,"see_result":true,"my_hand":"h_2_1_0_0","opponent_hand":"h_1_0_2_1","win":false,"tie":false,"bet":0,"earnings":0,"expected_value":-0.59375,"expected_earnings":0,"bet_rt":2624,"block":1,"trial_type":"card_game","trial_index":31,"time_elapsed":246978,"internal_node_id":"0.0-31.0"},{"type":"card_game","game_type":"straight_flush","losers":false,"see_result":true,"my_hand":"h_1_0_0_0","opponent_hand":"h_2_1_0_1","win":true,"tie":false,"bet":2,"earnings":10,"expected_value":0.65625,"expected_earnings":6.5625,"bet_rt":2504,"block":1,"trial_type":"card_game","trial_index":32,"time_elapsed":251027,"internal_node_id":"0.0-32.0"},{"type":"card_game","game_type":"straight_flush","losers":false,"see_result":true,"my_hand":"h_0_1_1_0","opponent_hand":"h_2_0_1_0","win":false,"tie":false,"bet":1,"earnings":-5,"expected_value":0.28125,"expected_earnings":1.40625,"bet_rt":3236,"block":1,"trial_type":"card_game","trial_index":33,"time_elapsed":255812,"internal_node_id":"0.0-33.0"},{"type":"card_game","game_type":"straight_flush","losers":false,"see_result":true,"my_hand":"h_0_0_3_1","opponent_hand":"h_2_0_0_1","win":true,"tie":false,"bet":0,"earnings":0,"expected_value":-0.21875,"expected_earnings":0,"bet_rt":1531,"block":1,"trial_type":"card_game","trial_index":34,"time_elapsed":258890,"internal_node_id":"0.0-34.0"},{"type":"card_game","game_type":"straight_flush","losers":false,"see_result":true,"my_hand":"h_0_1_1_0","opponent_hand":"h_3_1_2_0","win":false,"tie":false,"bet":2,"earnings":-10,"expected_value":0.28125,"expected_earnings":2.8125,"bet_rt":4041,"block":1,"trial_type":"card_game","trial_index":35,"time_elapsed":264475,"internal_node_id":"0.0-35.0"},{"type":"card_game","game_type":"straight_flush","losers":false,"see_result":true,"my_hand":"h_3_0_0_0","opponent_hand":"h_2_1_3_0","win":false,"tie":false,"bet":0,"earnings":0,"expected_value":-0.34375,"expected_earnings":0,"bet_rt":2807,"block":1,"trial_type":"card_game","trial_index":36,"time_elapsed":268841,"internal_node_id":"0.0-36.0"},{"type":"card_game","game_type":"straight_flush","losers":false,"see_result":true,"my_hand":"h_3_1_1_0","opponent_hand":"h_0_1_3_0","win":true,"tie":false,"bet":0,"earnings":0,"expected_value":0.03125,"expected_earnings":0,"bet_rt":1570,"block":1,"trial_type":"card_game","trial_index":37,"time_elapsed":271952,"internal_node_id":"0.0-37.0"},{"type":"card_game","game_type":"straight_flush","losers":false,"see_result":true,"my_hand":"h_2_0_1_1","opponent_hand":"h_3_0_3_1","win":true,"tie":false,"bet":1,"earnings":5,"expected_value":0.40625,"expected_earnings":2.03125,"bet_rt":2550,"block":1,"trial_type":"card_game","trial_index":38,"time_elapsed":276043,"internal_node_id":"0.0-38.0"},{"rt":3995.8450000267476,"stimulus":"<p>You earned a performance bonus of 30 cents on this set of trials, plus $1.50 for making it to this phase.</p><p>Press any key to continue.</p>","key_press":32,"trial_type":"html-keyboard-response","trial_index":39,"time_elapsed":280041,"internal_node_id":"0.0-39.0"},{"rt":0.5599999567493796,"stimulus":"<p>To test how well you understand the game, we'll now give you a series of hands where you won't see your results after you bet. You will just see your earnings at the end of the set of hands.</p><p>Press any key to continue.</p>","key_press":255,"trial_type":"html-keyboard-response","trial_index":40,"time_elapsed":280043,"internal_node_id":"0.0-40.0"},{"type":"card_game","game_type":"straight_flush","losers":false,"see_result":false,"my_hand":"h_1_0_0_1","opponent_hand":"h_1_1_1_0","win":true,"tie":false,"bet":2,"earnings":10,"expected_value":0.28125,"expected_earnings":2.8125,"bet_rt":3880,"block":2,"trial_type":"card_game","trial_index":41,"time_elapsed":284425,"internal_node_id":"0.0-41.0"},{"type":"card_game","game_type":"straight_flush","losers":false,"see_result":false,"my_hand":"h_0_0_0_1","opponent_hand":"h_1_1_1_0","win":false,"tie":false,"bet":0,"earnings":0,"expected_value":-0.9375,"expected_earnings":0,"bet_rt":2150,"block":2,"trial_type":"card_game","trial_index":42,"time_elapsed":287076,"internal_node_id":"0.0-42.0"},{"type":"card_game","game_type":"straight_flush","losers":false,"see_result":false,"my_hand":"h_3_0_1_0","opponent_hand":"h_2_0_1_0","win":false,"tie":false,"bet":0,"earnings":0,"expected_value":-0.09375,"expected_earnings":0,"bet_rt":3463,"block":2,"trial_type":"card_game","trial_index":43,"time_elapsed":291041,"internal_node_id":"0.0-43.0"},{"type":"card_game","game_type":"straight_flush","losers":false,"see_result":false,"my_hand":"h_3_0_0_1","opponent_hand":"h_0_1_3_1","win":false,"tie":false,"bet":0,"earnings":0,"expected_value":-0.28125,"expected_earnings":0,"bet_rt":1118,"block":2,"trial_type":"card_game","trial_index":44,"time_elapsed":292659,"internal_node_id":"0.0-44.0"},{"type":"card_game","game_type":"straight_flush","losers":false,"see_result":false,"my_hand":"h_3_1_1_0","opponent_hand":"h_3_0_2_0","win":false,"tie":false,"bet":0,"earnings":0,"expected_value":0.03125,"expected_earnings":0,"bet_rt":707,"block":2,"trial_type":"card_game","trial_index":45,"time_elapsed":293869,"internal_node_id":"0.0-45.0"},{"type":"card_game","game_type":"straight_flush","losers":false,"see_result":false,"my_hand":"h_1_1_3_0","opponent_hand":"h_2_1_0_0","win":true,"tie":false,"bet":0,"earnings":0,"expected_value":-0.03125,"expected_earnings":0,"bet_rt":2162,"block":2,"trial_type":"card_game","trial_index":46,"time_elapsed":296532,"internal_node_id":"0.0-46.0"},{"type":"card_game","game_type":"straight_flush","losers":false,"see_result":false,"my_hand":"h_3_0_2_1","opponent_hand":"h_2_1_0_1","win":true,"tie":false,"bet":1,"earnings":5,"expected_value":0.53125,"expected_earnings":2.65625,"bet_rt":2830,"block":2,"trial_type":"card_game","trial_index":47,"time_elapsed":299864,"internal_node_id":"0.0-47.0"},{"type":"card_game","game_type":"straight_flush","losers":false,"see_result":false,"my_hand":"h_0_0_2_0","opponent_hand":"h_3_0_1_0","win":false,"tie":false,"bet":0,"earnings":0,"expected_value":-0.71875,"expected_earnings":0,"bet_rt":1551,"block":2,"trial_type":"card_game","trial_index":48,"time_elapsed":301916,"internal_node_id":"0.0-48.0"},{"type":"card_game","game_type":"straight_flush","losers":false,"see_result":false,"my_hand":"h_1_1_1_1","opponent_hand":"h_1_1_1_0","win":true,"tie":false,"bet":0,"earnings":0,"expected_value":-0.765625,"expected_earnings":0,"bet_rt":1374,"block":2,"trial_type":"card_game","trial_index":49,"time_elapsed":303792,"internal_node_id":"0.0-49.0"},{"type":"card_game","game_type":"straight_flush","losers":false,"see_result":false,"my_hand":"h_1_1_1_1","opponent_hand":"h_3_0_2_1","win":false,"tie":false,"bet":0,"earnings":0,"expected_value":-0.765625,"expected_earnings":0,"bet_rt":914,"block":2,"trial_type":"card_game","trial_index":50,"time_elapsed":305208,"internal_node_id":"0.0-50.0"},{"type":"card_game","game_type":"straight_flush","losers":false,"see_result":false,"my_hand":"h_1_1_2_1","opponent_hand":"h_1_1_0_1","win":true,"tie":false,"bet":2,"earnings":10,"expected_value":0.84375,"expected_earnings":8.4375,"bet_rt":1335,"block":2,"trial_type":"card_game","trial_index":51,"time_elapsed":307045,"internal_node_id":"0.0-51.0"},{"type":"card_game","game_type":"straight_flush","losers":false,"see_result":false,"my_hand":"h_2_1_2_0","opponent_hand":"h_0_1_2_1","win":true,"tie":false,"bet":0,"earnings":0,"expected_value":-0.4375,"expected_earnings":0,"bet_rt":1306,"block":2,"trial_type":"card_game","trial_index":52,"time_elapsed":308852,"internal_node_id":"0.0-52.0"},{"type":"card_game","game_type":"straight_flush","losers":false,"see_result":false,"my_hand":"h_0_0_2_1","opponent_hand":"h_3_0_0_1","win":false,"tie":false,"bet":0,"earnings":0,"expected_value":-0.59375,"expected_earnings":0,"bet_rt":1206,"block":2,"trial_type":"card_game","trial_index":53,"time_elapsed":310561,"internal_node_id":"0.0-53.0"},{"type":"card_game","game_type":"straight_flush","losers":false,"see_result":false,"my_hand":"h_3_1_1_0","opponent_hand":"h_3_0_1_1","win":true,"tie":false,"bet":0,"earnings":0,"expected_value":0.03125,"expected_earnings":0,"bet_rt":4230,"block":2,"trial_type":"card_game","trial_index":54,"time_elapsed":315292,"internal_node_id":"0.0-54.0"},{"type":"card_game","game_type":"straight_flush","losers":false,"see_result":false,"my_hand":"h_3_1_2_0","opponent_hand":"h_0_0_3_0","win":true,"tie":false,"bet":1,"earnings":5,"expected_value":0.59375,"expected_earnings":2.96875,"bet_rt":1471,"block":2,"trial_type":"card_game","trial_index":55,"time_elapsed":317264,"internal_node_id":"0.0-55.0"},{"type":"card_game","game_type":"straight_flush","losers":false,"see_result":false,"my_hand":"h_0_1_3_1","opponent_hand":"h_3_0_3_1","win":false,"tie":false,"bet":0,"earnings":0,"expected_value":-0.15625,"expected_earnings":0,"bet_rt":1526,"block":2,"trial_type":"card_game","trial_index":56,"time_elapsed":319292,"internal_node_id":"0.0-56.0"},{"type":"card_game","game_type":"straight_flush","losers":false,"see_result":false,"my_hand":"h_3_1_1_1","opponent_hand":"h_1_1_3_1","win":false,"tie":true,"bet":0,"earnings":0,"expected_value":0.09375,"expected_earnings":0,"bet_rt":1299,"block":2,"trial_type":"card_game","trial_index":57,"time_elapsed":321092,"internal_node_id":"0.0-57.0"},{"type":"card_game","game_type":"straight_flush","losers":false,"see_result":false,"my_hand":"h_2_0_0_1","opponent_hand":"h_2_0_0_1","win":false,"tie":true,"bet":0,"earnings":0,"expected_value":-0.65625,"expected_earnings":0,"bet_rt":2807,"block":2,"trial_type":"card_game","trial_index":58,"time_elapsed":324400,"internal_node_id":"0.0-58.0"},{"type":"card_game","game_type":"straight_flush","losers":false,"see_result":false,"my_hand":"h_2_1_3_1","opponent_hand":"h_3_1_3_1","win":true,"tie":false,"bet":2,"earnings":10,"expected_value":0.96875,"expected_earnings":9.6875,"bet_rt":4411,"block":2,"trial_type":"card_game","trial_index":59,"time_elapsed":329313,"internal_node_id":"0.0-59.0"},{"type":"card_game","game_type":"straight_flush","losers":false,"see_result":false,"my_hand":"h_0_1_1_1","opponent_hand":"h_2_0_2_1","win":true,"tie":false,"bet":2,"earnings":10,"expected_value":0.71875,"expected_earnings":7.1875,"bet_rt":1138,"block":2,"trial_type":"card_game","trial_index":60,"time_elapsed":330952,"internal_node_id":"0.0-60.0"},{"type":"card_game","game_type":"straight_flush","losers":false,"see_result":false,"my_hand":"h_2_1_1_0","opponent_hand":"h_2_0_1_1","win":true,"tie":false,"bet":1,"earnings":5,"expected_value":0.46875,"expected_earnings":2.34375,"bet_rt":2070,"block":2,"trial_type":"card_game","trial_index":61,"time_elapsed":333524,"internal_node_id":"0.0-61.0"},{"type":"card_game","game_type":"straight_flush","losers":false,"see_result":false,"my_hand":"h_2_0_1_1","opponent_hand":"h_2_0_3_0","win":false,"tie":false,"bet":1,"earnings":-5,"expected_value":0.40625,"expected_earnings":2.03125,"bet_rt":1326,"block":2,"trial_type":"card_game","trial_index":62,"time_elapsed":335351,"internal_node_id":"0.0-62.0"},{"type":"card_game","game_type":"straight_flush","losers":false,"see_result":false,"my_hand":"h_2_1_1_1","opponent_hand":"h_1_0_0_1","win":true,"tie":false,"bet":2,"earnings":10,"expected_value":0.84375,"expected_earnings":8.4375,"bet_rt":2051,"block":2,"trial_type":"card_game","trial_index":63,"time_elapsed":337903,"internal_node_id":"0.0-63.0"},{"type":"card_game","game_type":"straight_flush","losers":false,"see_result":false,"my_hand":"h_2_0_2_1","opponent_hand":"h_0_1_0_1","win":true,"tie":false,"bet":0,"earnings":0,"expected_value":-0.4375,"expected_earnings":0,"bet_rt":1572,"block":2,"trial_type":"card_game","trial_index":64,"time_elapsed":339976,"internal_node_id":"0.0-64.0"},{"rt":6525.449999957345,"stimulus":"<p>You earned a performance bonus of 50 cents on this set of trials.</p><p>You have earned a performance bonus of 80 cents over the experiment so far, plus $1.50 for making it to this phase.</p><p>Press any key to continue.</p>","key_press":32,"trial_type":"html-keyboard-response","trial_index":65,"time_elapsed":346505,"internal_node_id":"0.0-65.0"},{"rt":0.3899999428540468,"stimulus":"<p><font color='red'><b>Now, we want you to try to lose the game! For the remainder of the experiment, if you bet and lose, you'll gain the amount you bet, and if you bet and win, you'll lose the amount you bet.</b></font></p><p>As before, you won't win or lose anything if you tie your opponent, or if you don't bet.</p><p>Press any key to continue.</p>","key_press":255,"trial_type":"html-keyboard-response","trial_index":66,"time_elapsed":346506,"internal_node_id":"0.0-66.0"},{"rt":18165.7450000057,"responses":"{\"Q0\":\"Bet and my hand wins.\"}","question_order":"[0]","response_trial_type":"attention_check","trial_type":"survey-multi-choice","trial_index":67,"time_elapsed":364673,"internal_node_id":"0.0-67.0"},{"rt":4376.850000000559,"stimulus":"<p>Great, now you get to play a few hands!</p><p>As before, you won't see your results after you bet. You will just see your earnings at the end of the set of hands.</p><p>Press any key to continue.</p>","key_press":32,"trial_type":"html-keyboard-response","trial_index":68,"time_elapsed":369051,"internal_node_id":"0.0-68.0"},{"type":"card_game","game_type":"straight_flush","losers":true,"see_result":false,"my_hand":"h_0_1_1_1","opponent_hand":"h_0_1_0_0","win":false,"tie":false,"bet":0,"earnings":0,"expected_value":-0.71875,"expected_earnings":0,"bet_rt":16451,"block":3,"trial_type":"card_game","trial_index":69,"time_elapsed":386004,"internal_node_id":"0.0-69.0"},{"type":"card_game","game_type":"straight_flush","losers":true,"see_result":false,"my_hand":"h_1_0_1_1","opponent_hand":"h_0_1_1_0","win":true,"tie":false,"bet":2,"earnings":10,"expected_value":0.8125,"expected_earnings":8.125,"bet_rt":4055,"block":3,"trial_type":"card_game","trial_index":70,"time_elapsed":390560,"internal_node_id":"0.0-70.0"},{"type":"card_game","game_type":"straight_flush","losers":true,"see_result":false,"my_hand":"h_3_0_3_1","opponent_hand":"h_2_1_1_0","win":true,"tie":false,"bet":2,"earnings":10,"expected_value":-0.1875,"expected_earnings":-1.875,"bet_rt":1983,"block":3,"trial_type":"card_game","trial_index":71,"time_elapsed":393044,"internal_node_id":"0.0-71.0"},{"type":"card_game","game_type":"straight_flush","losers":true,"see_result":false,"my_hand":"h_0_1_3_1","opponent_hand":"h_0_1_0_1","win":false,"tie":false,"bet":2,"earnings":-10,"expected_value":0.15625,"expected_earnings":1.5625,"bet_rt":1743,"block":3,"trial_type":"card_game","trial_index":72,"time_elapsed":395288,"internal_node_id":"0.0-72.0"},{"type":"card_game","game_type":"straight_flush","losers":true,"see_result":false,"my_hand":"h_1_0_3_1","opponent_hand":"h_0_0_0_1","win":false,"tie":false,"bet":2,"earnings":-10,"expected_value":-0.03125,"expected_earnings":-0.3125,"bet_rt":763,"block":3,"trial_type":"card_game","trial_index":73,"time_elapsed":396551,"internal_node_id":"0.0-73.0"},{"type":"card_game","game_type":"straight_flush","losers":true,"see_result":false,"my_hand":"h_0_1_1_1","opponent_hand":"h_1_1_0_1","win":false,"tie":true,"bet":0,"earnings":0,"expected_value":-0.71875,"expected_earnings":0,"bet_rt":1631,"block":3,"trial_type":"card_game","trial_index":74,"time_elapsed":398685,"internal_node_id":"0.0-74.0"},{"type":"card_game","game_type":"straight_flush","losers":true,"see_result":false,"my_hand":"h_1_0_3_0","opponent_hand":"h_1_1_3_0","win":true,"tie":false,"bet":2,"earnings":10,"expected_value":0.09375,"expected_earnings":0.9375,"bet_rt":1386,"block":3,"trial_type":"card_game","trial_index":75,"time_elapsed":400572,"internal_node_id":"0.0-75.0"},{"type":"card_game","game_type":"straight_flush","losers":true,"see_result":false,"my_hand":"h_2_0_0_0","opponent_hand":"h_2_0_0_0","win":false,"tie":true,"bet":2,"earnings":0,"expected_value":0.71875,"expected_earnings":7.1875,"bet_rt":1046,"block":3,"trial_type":"card_game","trial_index":76,"time_elapsed":402120,"internal_node_id":"0.0-76.0"},{"type":"card_game","game_type":"straight_flush","losers":true,"see_result":false,"my_hand":"h_2_1_1_0","opponent_hand":"h_3_0_3_0","win":false,"tie":false,"bet":0,"earnings":0,"expected_value":-0.46875,"expected_earnings":0,"bet_rt":2290,"block":3,"trial_type":"card_game","trial_index":77,"time_elapsed":404911,"internal_node_id":"0.0-77.0"},{"type":"card_game","game_type":"straight_flush","losers":true,"see_result":false,"my_hand":"h_0_0_0_1","opponent_hand":"h_1_0_3_1","win":true,"tie":false,"bet":1,"earnings":5,"expected_value":0.9375,"expected_earnings":4.6875,"bet_rt":1991,"block":3,"trial_type":"card_game","trial_index":78,"time_elapsed":407404,"internal_node_id":"0.0-78.0"},{"type":"card_game","game_type":"straight_flush","losers":true,"see_result":false,"my_hand":"h_2_1_0_1","opponent_hand":"h_0_1_1_0","win":true,"tie":false,"bet":0,"earnings":0,"expected_value":0.53125,"expected_earnings":0,"bet_rt":2295,"block":3,"trial_type":"card_game","trial_index":79,"time_elapsed":410200,"internal_node_id":"0.0-79.0"},{"type":"card_game","game_type":"straight_flush","losers":true,"see_result":false,"my_hand":"h_3_1_3_0","opponent_hand":"h_1_0_1_0","win":false,"tie":false,"bet":2,"earnings":-10,"expected_value":-0.1875,"expected_earnings":-1.875,"bet_rt":1027,"block":3,"trial_type":"card_game","trial_index":80,"time_elapsed":411728,"internal_node_id":"0.0-80.0"},{"type":"card_game","game_type":"straight_flush","losers":true,"see_result":false,"my_hand":"h_2_0_2_1","opponent_hand":"h_0_0_2_0","win":false,"tie":false,"bet":2,"earnings":-10,"expected_value":0.4375,"expected_earnings":4.375,"bet_rt":703,"block":3,"trial_type":"card_game","trial_index":81,"time_elapsed":412931,"internal_node_id":"0.0-81.0"},{"type":"card_game","game_type":"straight_flush","losers":true,"see_result":false,"my_hand":"h_1_1_2_0","opponent_hand":"h_2_0_2_1","win":false,"tie":false,"bet":2,"earnings":-10,"expected_value":-0.40625,"expected_earnings":-4.0625,"bet_rt":1860,"block":3,"trial_type":"card_game","trial_index":82,"time_elapsed":415291,"internal_node_id":"0.0-82.0"},{"type":"card_game","game_type":"straight_flush","losers":true,"see_result":false,"my_hand":"h_2_0_0_1","opponent_hand":"h_0_1_3_1","win":true,"tie":false,"bet":2,"earnings":10,"expected_value":0.65625,"expected_earnings":6.5625,"bet_rt":907,"block":3,"trial_type":"card_game","trial_index":83,"time_elapsed":416700,"internal_node_id":"0.0-83.0"},{"type":"card_game","game_type":"straight_flush","losers":true,"see_result":false,"my_hand":"h_2_0_1_0","opponent_hand":"h_0_0_3_0","win":false,"tie":false,"bet":0,"earnings":0,"expected_value":-0.78125,"expected_earnings":0,"bet_rt":1239,"block":3,"trial_type":"card_game","trial_index":84,"time_elapsed":418441,"internal_node_id":"0.0-84.0"},{"type":"card_game","game_type":"straight_flush","losers":true,"see_result":false,"my_hand":"h_3_0_2_0","opponent_hand":"h_1_1_2_1","win":false,"tie":false,"bet":0,"earnings":0,"expected_value":-0.90625,"expected_earnings":0,"bet_rt":1766,"block":3,"trial_type":"card_game","trial_index":85,"time_elapsed":420707,"internal_node_id":"0.0-85.0"},{"type":"card_game","game_type":"straight_flush","losers":true,"see_result":false,"my_hand":"h_0_1_0_0","opponent_hand":"h_1_1_3_0","win":true,"tie":false,"bet":2,"earnings":10,"expected_value":0.9375,"expected_earnings":9.375,"bet_rt":1587,"block":3,"trial_type":"card_game","trial_index":86,"time_elapsed":422795,"internal_node_id":"0.0-86.0"},{"type":"card_game","game_type":"straight_flush","losers":true,"see_result":false,"my_hand":"h_2_0_2_0","opponent_hand":"h_2_0_1_0","win":true,"tie":false,"bet":2,"earnings":10,"expected_value":0.484375,"expected_earnings":4.84375,"bet_rt":939,"block":3,"trial_type":"card_game","trial_index":87,"time_elapsed":424236,"internal_node_id":"0.0-87.0"},{"type":"card_game","game_type":"straight_flush","losers":true,"see_result":false,"my_hand":"h_3_0_2_0","opponent_hand":"h_0_1_3_0","win":false,"tie":false,"bet":1,"earnings":-5,"expected_value":-0.90625,"expected_earnings":-4.53125,"bet_rt":1423,"block":3,"trial_type":"card_game","trial_index":88,"time_elapsed":426159,"internal_node_id":"0.0-88.0"},{"type":"card_game","game_type":"straight_flush","losers":true,"see_result":false,"my_hand":"h_1_1_0_1","opponent_hand":"h_2_0_2_0","win":false,"tie":false,"bet":0,"earnings":0,"expected_value":-0.71875,"expected_earnings":0,"bet_rt":1359,"block":3,"trial_type":"card_game","trial_index":89,"time_elapsed":428020,"internal_node_id":"0.0-89.0"},{"type":"card_game","game_type":"straight_flush","losers":true,"see_result":false,"my_hand":"h_1_1_2_0","opponent_hand":"h_3_0_0_0","win":false,"tie":false,"bet":0,"earnings":0,"expected_value":-0.40625,"expected_earnings":0,"bet_rt":1247,"block":3,"trial_type":"card_game","trial_index":90,"time_elapsed":429767,"internal_node_id":"0.0-90.0"},{"type":"card_game","game_type":"straight_flush","losers":true,"see_result":false,"my_hand":"h_0_0_3_0","opponent_hand":"h_2_0_2_0","win":false,"tie":false,"bet":2,"earnings":-10,"expected_value":0.34375,"expected_earnings":3.4375,"bet_rt":1351,"block":3,"trial_type":"card_game","trial_index":91,"time_elapsed":431619,"internal_node_id":"0.0-91.0"},{"type":"card_game","game_type":"straight_flush","losers":true,"see_result":false,"my_hand":"h_1_1_3_0","opponent_hand":"h_3_0_1_0","win":false,"tie":false,"bet":2,"earnings":-10,"expected_value":0.03125,"expected_earnings":0.3125,"bet_rt":1311,"block":3,"trial_type":"card_game","trial_index":92,"time_elapsed":433432,"internal_node_id":"0.0-92.0"},{"rt":5865.600000019185,"stimulus":"<p>You earned a performance bonus of 40 cents on this set of trials.</p><p>You have earned a performance bonus of 120 cents over the experiment so far, plus $1.50 for making it to this phase.</p><p>Press any key to continue.</p>","key_press":32,"trial_type":"html-keyboard-response","trial_index":93,"time_elapsed":439301,"internal_node_id":"0.0-93.0"},{"rt":0.5899999523535371,"stimulus":"<p>Great, we just have a few questions to ask you and then you'll be finished!</p><p>Press any key to continue.</p>","key_press":255,"trial_type":"html-keyboard-response","trial_index":94,"time_elapsed":439302,"internal_node_id":"0.0-94.0"},{"rt":9836.67999994941,"responses":"{\"Q0\":4,\"Q1\":4,\"Q2\":1}","question_order":"[0,1,2]","response_trial_type":"debrief","trial_type":"survey-likert","trial_index":95,"time_elapsed":449141,"internal_node_id":"0.0-95.0"},{"rt":7536.83999995701,"responses":"{\"Q0\":\"35-45\",\"Q1\":\"Bachelor's degree\",\"Q2\":\"Male\",\"Q3\":\"Asian\"}","question_order":"[0,1,2,3]","response_trial_type":"demographics","trial_type":"survey-multi-choice","trial_index":96,"time_elapsed":456680,"internal_node_id":"0.0-96.0"},{"rt":1601.494999951683,"responses":"{\"Q0\":\"\"}","response_trial_type":"comments","trial_type":"survey-text","trial_index":97,"time_elapsed":458291,"internal_node_id":"0.0-97.0"}]