[{"view_history":"[{\"page_index\":0,\"viewing_time\":5316.79499999882},{\"page_index\":1,\"viewing_time\":168821.75500000085},{\"page_index\":2,\"viewing_time\":12095.939999999246},{\"page_index\":3,\"viewing_time\":57559.6000000005},{\"page_index\":4,\"viewing_time\":36015.60999999853},{\"page_index\":5,\"viewing_time\":17935.93999999942},{\"page_index\":6,\"viewing_time\":10383.820000002743}]","rt":308130.28999999736,"trial_type":"instructions","trial_index":0,"time_elapsed":308133,"internal_node_id":"0.0-0.0"},{"type":"hand_comparison","hand_win":"h_1_0_2_1","hand_lose":"h_3_0_0_0","explanation":"Adjacent cards beat non-adjacent.","hand_indices":[0,1],"hand_choice":0,"correct":true,"rt":4758,"trial_type":"hand_comparison","trial_index":1,"time_elapsed":314899,"internal_node_id":"0.0-1.0"},{"type":"hand_comparison","hand_win":"h_0_0_1_0","hand_lose":"h_3_0_2_1","explanation":"Same-suit adjacent beats different suit.","hand_indices":[0,1],"hand_choice":0,"correct":true,"rt":3297,"trial_type":"hand_comparison","trial_index":2,"time_elapsed":320199,"internal_node_id":"0.0-2.0"},{"type":"hand_comparison","hand_win":"h_3_0_0_1","hand_lose":"h_2_0_2_1","explanation":"Highest card breaks ties.","hand_indices":[0,1],"hand_choice":0,"correct":true,"rt":254103,"trial_type":"hand_comparison","trial_index":3,"time_elapsed":576305,"internal_node_id":"0.0-3.0"},{"type":"hand_comparison","hand_win":"h_3_1_2_1","hand_lose":"h_2_0_3_0","explanation":"Black cards beat red cards if the numbers are tied.","hand_indices":[1,0],"hand_choice":1,"correct":true,"rt":13377,"trial_type":"hand_comparison","trial_index":4,"time_elapsed":591685,"internal_node_id":"0.0-4.0"},{"rt":4126.655000000028,"stimulus":"<p><b>Congratulations, you passed the test, and will get to proceed to phase 2!</b></p><p>You have earned a $1.50 bonus, and will be awarded a performance bonus based on your bets in the next phase.</p><p>Press any key to continue.</p>","key_press":32,"trial_type":"html-keyboard-response","trial_index":5,"time_elapsed":595814,"internal_node_id":"0.0-5.0"},{"rt":2550.8850000005914,"stimulus":"<p>Now you get to play a few hands. After you bet, we'll show you your opponent's hand and how much you won (or lost), and at the end of these hands we'll tell you your total earnings.</p><p>Press any key to continue.</p>","key_press":32,"trial_type":"html-keyboard-response","trial_index":6,"time_elapsed":598365,"internal_node_id":"0.0-6.0"},{"type":"card_game","game_type":"straight_flush","losers":false,"see_result":true,"my_hand":"h_0_0_1_0","opponent_hand":"h_0_0_2_0","win":true,"tie":false,"bet":2,"earnings":10,"expected_value":0.65625,"expected_earnings":6.5625,"bet_rt":3742,"block":1,"trial_type":"card_game","trial_index":7,"time_elapsed":603653,"internal_node_id":"0.0-7.0"},{"type":"card_game","game_type":"straight_flush","losers":false,"see_result":true,"my_hand":"h_3_1_0_0","opponent_hand":"h_3_0_2_1","win":false,"tie":false,"bet":0,"earnings":0,"expected_value":-0.21875,"expected_earnings":0,"bet_rt":3765,"block":1,"trial_type":"card_game","trial_index":8,"time_elapsed":608966,"internal_node_id":"0.0-8.0"},{"type":"card_game","game_type":"straight_flush","losers":false,"see_result":true,"my_hand":"h_2_1_3_1","opponent_hand":"h_2_1_0_0","win":true,"tie":false,"bet":2,"earnings":10,"expected_value":0.96875,"expected_earnings":9.6875,"bet_rt":1669,"block":1,"trial_type":"card_game","trial_index":9,"time_elapsed":612174,"internal_node_id":"0.0-9.0"},{"type":"card_game","game_type":"straight_flush","losers":false,"see_result":true,"my_hand":"h_0_0_3_0","opponent_hand":"h_3_1_0_1","win":false,"tie":false,"bet":0,"earnings":0,"expected_value":-0.34375,"expected_earnings":0,"bet_rt":2292,"block":1,"trial_type":"card_game","trial_index":10,"time_elapsed":616014,"internal_node_id":"0.0-10.0"},{"type":"card_game","game_type":"straight_flush","losers":false,"see_result":true,"my_hand":"h_1_0_3_0","opponent_hand":"h_2_1_0_1","win":true,"tie":false,"bet":0,"earnings":0,"expected_value":-0.09375,"expected_earnings":0,"bet_rt":2724,"block":1,"trial_type":"card_game","trial_index":11,"time_elapsed":620275,"internal_node_id":"0.0-11.0"},{"type":"card_game","game_type":"straight_flush","losers":false,"see_result":true,"my_hand":"h_1_0_2_0","opponent_hand":"h_0_0_3_0","win":true,"tie":false,"bet":2,"earnings":10,"expected_value":0.78125,"expected_earnings":7.8125,"bet_rt":1288,"block":1,"trial_type":"card_game","trial_index":12,"time_elapsed":623100,"internal_node_id":"0.0-12.0"},{"type":"card_game","game_type":"straight_flush","losers":false,"see_result":true,"my_hand":"h_2_1_3_0","opponent_hand":"h_3_1_0_1","win":true,"tie":false,"bet":1,"earnings":5,"expected_value":0.53125,"expected_earnings":2.65625,"bet_rt":1719,"block":1,"trial_type":"card_game","trial_index":13,"time_elapsed":626357,"internal_node_id":"0.0-13.0"},{"type":"card_game","game_type":"straight_flush","losers":false,"see_result":true,"my_hand":"h_3_1_3_1","opponent_hand":"h_3_0_3_0","win":true,"tie":false,"bet":0,"earnings":0,"expected_value":0.234375,"expected_earnings":0,"bet_rt":3774,"block":1,"trial_type":"card_game","trial_index":14,"time_elapsed":631667,"internal_node_id":"0.0-14.0"},{"type":"card_game","game_type":"straight_flush","losers":false,"see_result":true,"my_hand":"h_3_0_0_1","opponent_hand":"h_0_0_0_0","win":true,"tie":false,"bet":0,"earnings":0,"expected_value":-0.28125,"expected_earnings":0,"bet_rt":1904,"block":1,"trial_type":"card_game","trial_index":15,"time_elapsed":635098,"internal_node_id":"0.0-15.0"},{"type":"card_game","game_type":"straight_flush","losers":false,"see_result":true,"my_hand":"h_1_0_1_1","opponent_hand":"h_0_0_0_1","win":true,"tie":false,"bet":0,"earnings":0,"expected_value":-0.8125,"expected_earnings":0,"bet_rt":1320,"block":1,"trial_type":"card_game","trial_index":16,"time_elapsed":638348,"internal_node_id":"0.0-16.0"},{"type":"card_game","game_type":"straight_flush","losers":false,"see_result":true,"my_hand":"h_2_0_1_0","opponent_hand":"h_1_0_3_0","win":true,"tie":false,"bet":2,"earnings":10,"expected_value":0.78125,"expected_earnings":7.8125,"bet_rt":149774,"block":1,"trial_type":"card_game","trial_index":17,"time_elapsed":789664,"internal_node_id":"0.0-17.0"},{"type":"card_game","game_type":"straight_flush","losers":false,"see_result":true,"my_hand":"h_3_0_1_1","opponent_hand":"h_2_0_3_0","win":false,"tie":false,"bet":0,"earnings":0,"expected_value":-0.03125,"expected_earnings":0,"bet_rt":4247,"block":1,"trial_type":"card_game","trial_index":18,"time_elapsed":795451,"internal_node_id":"0.0-18.0"},{"type":"card_game","game_type":"straight_flush","losers":false,"see_result":true,"my_hand":"h_3_1_3_0","opponent_hand":"h_1_0_1_0","win":true,"tie":false,"bet":0,"earnings":0,"expected_value":0.1875,"expected_earnings":0,"bet_rt":884,"block":1,"trial_type":"card_game","trial_index":19,"time_elapsed":797878,"internal_node_id":"0.0-19.0"},{"type":"card_game","game_type":"straight_flush","losers":false,"see_result":true,"my_hand":"h_2_1_1_0","opponent_hand":"h_2_1_0_0","win":true,"tie":false,"bet":2,"earnings":10,"expected_value":0.46875,"expected_earnings":4.6875,"bet_rt":1770,"block":1,"trial_type":"card_game","trial_index":20,"time_elapsed":801189,"internal_node_id":"0.0-20.0"},{"type":"card_game","game_type":"straight_flush","losers":false,"see_result":true,"my_hand":"h_1_1_0_1","opponent_hand":"h_2_0_1_1","win":true,"tie":false,"bet":2,"earnings":10,"expected_value":0.71875,"expected_earnings":7.1875,"bet_rt":819,"block":1,"trial_type":"card_game","trial_index":21,"time_elapsed":803549,"internal_node_id":"0.0-21.0"},{"type":"card_game","game_type":"straight_flush","losers":false,"see_result":true,"my_hand":"h_2_1_1_0","opponent_hand":"h_2_1_0_1","win":true,"tie":false,"bet":2,"earnings":10,"expected_value":0.46875,"expected_earnings":4.6875,"bet_rt":1403,"block":1,"trial_type":"card_game","trial_index":22,"time_elapsed":806490,"internal_node_id":"0.0-22.0"},{"type":"card_game","game_type":"straight_flush","losers":false,"see_result":true,"my_hand":"h_1_0_0_1","opponent_hand":"h_2_1_0_1","win":true,"tie":false,"bet":2,"earnings":10,"expected_value":0.28125,"expected_earnings":2.8125,"bet_rt":1566,"block":1,"trial_type":"card_game","trial_index":23,"time_elapsed":809599,"internal_node_id":"0.0-23.0"},{"type":"card_game","game_type":"straight_flush","losers":false,"see_result":true,"my_hand":"h_0_1_0_1","opponent_hand":"h_0_0_3_1","win":false,"tie":false,"bet":0,"earnings":0,"expected_value":-0.890625,"expected_earnings":0,"bet_rt":1121,"block":1,"trial_type":"card_game","trial_index":24,"time_elapsed":812259,"internal_node_id":"0.0-24.0"},{"type":"card_game","game_type":"straight_flush","losers":false,"see_result":true,"my_hand":"h_2_0_2_1","opponent_hand":"h_1_1_2_0","win":false,"tie":false,"bet":0,"earnings":0,"expected_value":-0.4375,"expected_earnings":0,"bet_rt":2133,"block":1,"trial_type":"card_game","trial_index":25,"time_elapsed":815934,"internal_node_id":"0.0-25.0"},{"type":"card_game","game_type":"straight_flush","losers":false,"see_result":true,"my_hand":"h_1_1_3_1","opponent_hand":"h_2_0_3_0","win":false,"tie":false,"bet":0,"earnings":0,"expected_value":0.09375,"expected_earnings":0,"bet_rt":1531,"block":1,"trial_type":"card_game","trial_index":26,"time_elapsed":819007,"internal_node_id":"0.0-26.0"},{"type":"card_game","game_type":"straight_flush","losers":false,"see_result":true,"my_hand":"h_2_1_0_1","opponent_hand":"h_0_0_0_1","win":true,"tie":false,"bet":0,"earnings":0,"expected_value":-0.53125,"expected_earnings":0,"bet_rt":785,"block":1,"trial_type":"card_game","trial_index":27,"time_elapsed":821332,"internal_node_id":"0.0-27.0"},{"type":"card_game","game_type":"straight_flush","losers":false,"see_result":true,"my_hand":"h_0_0_2_0","opponent_hand":"h_2_1_3_1","win":false,"tie":false,"bet":0,"earnings":0,"expected_value":-0.71875,"expected_earnings":0,"bet_rt":1116,"block":1,"trial_type":"card_game","trial_index":28,"time_elapsed":823982,"internal_node_id":"0.0-28.0"},{"type":"card_game","game_type":"straight_flush","losers":false,"see_result":true,"my_hand":"h_1_1_1_1","opponent_hand":"h_2_1_2_0","win":false,"tie":false,"bet":0,"earnings":0,"expected_value":-0.765625,"expected_earnings":0,"bet_rt":1066,"block":1,"trial_type":"card_game","trial_index":29,"time_elapsed":826585,"internal_node_id":"0.0-29.0"},{"type":"card_game","game_type":"straight_flush","losers":false,"see_result":true,"my_hand":"h_2_0_3_0","opponent_hand":"h_0_1_3_0","win":true,"tie":false,"bet":2,"earnings":10,"expected_value":0.90625,"expected_earnings":9.0625,"bet_rt":1647,"block":1,"trial_type":"card_game","trial_index":30,"time_elapsed":829779,"internal_node_id":"0.0-30.0"},{"type":"card_game","game_type":"straight_flush","losers":false,"see_result":true,"my_hand":"h_2_0_0_0","opponent_hand":"h_1_1_1_1","win":true,"tie":false,"bet":0,"earnings":0,"expected_value":-0.71875,"expected_earnings":0,"bet_rt":1116,"block":1,"trial_type":"card_game","trial_index":31,"time_elapsed":832435,"internal_node_id":"0.0-31.0"},{"type":"card_game","game_type":"straight_flush","losers":false,"see_result":true,"my_hand":"h_0_0_0_1","opponent_hand":"h_1_1_2_1","win":false,"tie":false,"bet":0,"earnings":0,"expected_value":-0.9375,"expected_earnings":0,"bet_rt":693,"block":1,"trial_type":"card_game","trial_index":32,"time_elapsed":834665,"internal_node_id":"0.0-32.0"},{"type":"card_game","game_type":"straight_flush","losers":false,"see_result":true,"my_hand":"h_0_0_1_1","opponent_hand":"h_0_0_0_0","win":true,"tie":false,"bet":1,"earnings":5,"expected_value":0.34375,"expected_earnings":1.71875,"bet_rt":1046,"block":1,"trial_type":"card_game","trial_index":33,"time_elapsed":837247,"internal_node_id":"0.0-33.0"},{"type":"card_game","game_type":"straight_flush","losers":false,"see_result":true,"my_hand":"h_2_1_2_1","opponent_hand":"h_0_0_3_0","win":false,"tie":false,"bet":0,"earnings":0,"expected_value":-0.390625,"expected_earnings":0,"bet_rt":1178,"block":1,"trial_type":"card_game","trial_index":34,"time_elapsed":839958,"internal_node_id":"0.0-34.0"},{"type":"card_game","game_type":"straight_flush","losers":false,"see_result":true,"my_hand":"h_0_1_2_1","opponent_hand":"h_3_1_3_0","win":false,"tie":false,"bet":0,"earnings":0,"expected_value":-0.53125,"expected_earnings":0,"bet_rt":993,"block":1,"trial_type":"card_game","trial_index":35,"time_elapsed":842493,"internal_node_id":"0.0-35.0"},{"type":"card_game","game_type":"straight_flush","losers":false,"see_result":true,"my_hand":"h_2_1_3_0","opponent_hand":"h_3_0_0_0","win":true,"tie":false,"bet":2,"earnings":10,"expected_value":0.53125,"expected_earnings":5.3125,"bet_rt":1275,"block":1,"trial_type":"card_game","trial_index":36,"time_elapsed":845311,"internal_node_id":"0.0-36.0"},{"type":"card_game","game_type":"straight_flush","losers":false,"see_result":true,"my_hand":"h_0_0_3_1","opponent_hand":"h_0_0_1_0","win":false,"tie":false,"bet":0,"earnings":0,"expected_value":-0.21875,"expected_earnings":0,"bet_rt":938,"block":1,"trial_type":"card_game","trial_index":37,"time_elapsed":847787,"internal_node_id":"0.0-37.0"},{"type":"card_game","game_type":"straight_flush","losers":false,"see_result":true,"my_hand":"h_1_1_3_1","opponent_hand":"h_3_1_1_1","win":false,"tie":true,"bet":0,"earnings":0,"expected_value":0.09375,"expected_earnings":0,"bet_rt":1159,"block":1,"trial_type":"card_game","trial_index":38,"time_elapsed":850485,"internal_node_id":"0.0-38.0"},{"rt":1697.645000000135,"stimulus":"<p>You earned a performance bonus of 110 cents on this set of trials, plus $1.50 for making it to this phase.</p><p>Press any key to continue.</p>","key_press":32,"trial_type":"html-keyboard-response","trial_index":39,"time_elapsed":852184,"internal_node_id":"0.0-39.0"},{"rt":3329.364999997779,"stimulus":"<p>To test how well you understand the game, we'll now give you a series of hands where you won't see your results after you bet. You will just see your earnings at the end of the set of hands.</p><p>Press any key to continue.</p>","key_press":32,"trial_type":"html-keyboard-response","trial_index":40,"time_elapsed":855514,"internal_node_id":"0.0-40.0"},{"type":"card_game","game_type":"straight_flush","losers":false,"see_result":false,"my_hand":"h_3_0_3_0","opponent_hand":"h_3_1_2_0","win":false,"tie":false,"bet":0,"earnings":0,"expected_value":0.140625,"expected_earnings":0,"bet_rt":2758,"block":2,"trial_type":"card_game","trial_index":41,"time_elapsed":858775,"internal_node_id":"0.0-41.0"},{"type":"card_game","game_type":"straight_flush","losers":false,"see_result":false,"my_hand":"h_0_1_0_0","opponent_hand":"h_3_0_2_0","win":false,"tie":false,"bet":0,"earnings":0,"expected_value":-0.9375,"expected_earnings":0,"bet_rt":1049,"block":2,"trial_type":"card_game","trial_index":42,"time_elapsed":860327,"internal_node_id":"0.0-42.0"},{"type":"card_game","game_type":"straight_flush","losers":false,"see_result":false,"my_hand":"h_1_1_3_0","opponent_hand":"h_2_1_0_1","win":true,"tie":false,"bet":0,"earnings":0,"expected_value":-0.03125,"expected_earnings":0,"bet_rt":74,"block":2,"trial_type":"card_game","trial_index":43,"time_elapsed":860902,"internal_node_id":"0.0-43.0"},{"type":"card_game","game_type":"straight_flush","losers":false,"see_result":false,"my_hand":"h_1_1_0_1","opponent_hand":"h_1_0_1_0","win":true,"tie":false,"bet":2,"earnings":10,"expected_value":0.71875,"expected_earnings":7.1875,"bet_rt":3339,"block":2,"trial_type":"card_game","trial_index":44,"time_elapsed":864743,"internal_node_id":"0.0-44.0"},{"type":"card_game","game_type":"straight_flush","losers":false,"see_result":false,"my_hand":"h_1_1_3_0","opponent_hand":"h_3_0_1_1","win":false,"tie":true,"bet":0,"earnings":0,"expected_value":-0.03125,"expected_earnings":0,"bet_rt":921,"block":2,"trial_type":"card_game","trial_index":45,"time_elapsed":866166,"internal_node_id":"0.0-45.0"},{"type":"card_game","game_type":"straight_flush","losers":false,"see_result":false,"my_hand":"h_2_0_1_0","opponent_hand":"h_0_0_3_0","win":true,"tie":false,"bet":2,"earnings":10,"expected_value":0.78125,"expected_earnings":7.8125,"bet_rt":1003,"block":2,"trial_type":"card_game","trial_index":46,"time_elapsed":867670,"internal_node_id":"0.0-46.0"},{"type":"card_game","game_type":"straight_flush","losers":false,"see_result":false,"my_hand":"h_3_0_0_0","opponent_hand":"h_1_1_2_1","win":false,"tie":false,"bet":0,"earnings":0,"expected_value":-0.34375,"expected_earnings":0,"bet_rt":707,"block":2,"trial_type":"card_game","trial_index":47,"time_elapsed":868877,"internal_node_id":"0.0-47.0"},{"type":"card_game","game_type":"straight_flush","losers":false,"see_result":false,"my_hand":"h_0_1_3_0","opponent_hand":"h_2_0_1_0","win":false,"tie":false,"bet":0,"earnings":0,"expected_value":-0.28125,"expected_earnings":0,"bet_rt":835,"block":2,"trial_type":"card_game","trial_index":48,"time_elapsed":870214,"internal_node_id":"0.0-48.0"},{"type":"card_game","game_type":"straight_flush","losers":false,"see_result":false,"my_hand":"h_0_0_0_1","opponent_hand":"h_2_0_0_0","win":false,"tie":false,"bet":0,"earnings":0,"expected_value":-0.9375,"expected_earnings":0,"bet_rt":715,"block":2,"trial_type":"card_game","trial_index":49,"time_elapsed":871431,"internal_node_id":"0.0-49.0"},{"type":"card_game","game_type":"straight_flush","losers":false,"see_result":false,"my_hand":"h_0_1_1_1","opponent_hand":"h_2_0_1_0","win":false,"tie":false,"bet":2,"earnings":-10,"expected_value":0.71875,"expected_earnings":7.1875,"bet_rt":865,"block":2,"trial_type":"card_game","trial_index":50,"time_elapsed":872797,"internal_node_id":"0.0-50.0"},{"type":"card_game","game_type":"straight_flush","losers":false,"see_result":false,"my_hand":"h_2_1_0_1","opponent_hand":"h_0_0_1_0","win":false,"tie":false,"bet":0,"earnings":0,"expected_value":-0.53125,"expected_earnings":0,"bet_rt":2256,"block":2,"trial_type":"card_game","trial_index":51,"time_elapsed":875558,"internal_node_id":"0.0-51.0"},{"type":"card_game","game_type":"straight_flush","losers":false,"see_result":false,"my_hand":"h_2_1_3_1","opponent_hand":"h_3_1_3_1","win":true,"tie":false,"bet":2,"earnings":10,"expected_value":0.96875,"expected_earnings":9.6875,"bet_rt":835,"block":2,"trial_type":"card_game","trial_index":52,"time_elapsed":876893,"internal_node_id":"0.0-52.0"},{"type":"card_game","game_type":"straight_flush","losers":false,"see_result":false,"my_hand":"h_1_1_1_1","opponent_hand":"h_0_0_0_1","win":true,"tie":false,"bet":0,"earnings":0,"expected_value":-0.765625,"expected_earnings":0,"bet_rt":1027,"block":2,"trial_type":"card_game","trial_index":53,"time_elapsed":878422,"internal_node_id":"0.0-53.0"},{"type":"card_game","game_type":"straight_flush","losers":false,"see_result":false,"my_hand":"h_0_0_1_0","opponent_hand":"h_1_1_2_0","win":true,"tie":false,"bet":0,"earnings":0,"expected_value":0.65625,"expected_earnings":0,"bet_rt":867,"block":2,"trial_type":"card_game","trial_index":54,"time_elapsed":879789,"internal_node_id":"0.0-54.0"},{"type":"card_game","game_type":"straight_flush","losers":false,"see_result":false,"my_hand":"h_2_1_1_0","opponent_hand":"h_1_0_0_0","win":false,"tie":false,"bet":2,"earnings":-10,"expected_value":0.46875,"expected_earnings":4.6875,"bet_rt":907,"block":2,"trial_type":"card_game","trial_index":55,"time_elapsed":881197,"internal_node_id":"0.0-55.0"},{"type":"card_game","game_type":"straight_flush","losers":false,"see_result":false,"my_hand":"h_2_1_1_0","opponent_hand":"h_2_0_1_1","win":true,"tie":false,"bet":2,"earnings":10,"expected_value":0.46875,"expected_earnings":4.6875,"bet_rt":636,"block":2,"trial_type":"card_game","trial_index":56,"time_elapsed":882334,"internal_node_id":"0.0-56.0"},{"type":"card_game","game_type":"straight_flush","losers":false,"see_result":false,"my_hand":"h_0_1_2_0","opponent_hand":"h_2_1_1_1","win":false,"tie":false,"bet":0,"earnings":0,"expected_value":-0.65625,"expected_earnings":0,"bet_rt":755,"block":2,"trial_type":"card_game","trial_index":57,"time_elapsed":883589,"internal_node_id":"0.0-57.0"},{"type":"card_game","game_type":"straight_flush","losers":false,"see_result":false,"my_hand":"h_1_1_2_0","opponent_hand":"h_2_0_3_0","win":false,"tie":false,"bet":2,"earnings":-10,"expected_value":0.40625,"expected_earnings":4.0625,"bet_rt":668,"block":2,"trial_type":"card_game","trial_index":58,"time_elapsed":884759,"internal_node_id":"0.0-58.0"},{"type":"card_game","game_type":"straight_flush","losers":false,"see_result":false,"my_hand":"h_3_0_2_0","opponent_hand":"h_3_0_0_1","win":true,"tie":false,"bet":2,"earnings":10,"expected_value":0.90625,"expected_earnings":9.0625,"bet_rt":826,"block":2,"trial_type":"card_game","trial_index":59,"time_elapsed":886086,"internal_node_id":"0.0-59.0"},{"type":"card_game","game_type":"straight_flush","losers":false,"see_result":false,"my_hand":"h_2_1_0_0","opponent_hand":"h_2_0_2_0","win":false,"tie":false,"bet":0,"earnings":0,"expected_value":-0.59375,"expected_earnings":0,"bet_rt":667,"block":2,"trial_type":"card_game","trial_index":60,"time_elapsed":887253,"internal_node_id":"0.0-60.0"},{"type":"card_game","game_type":"straight_flush","losers":false,"see_result":false,"my_hand":"h_3_0_1_1","opponent_hand":"h_1_0_0_0","win":false,"tie":false,"bet":0,"earnings":0,"expected_value":-0.03125,"expected_earnings":0,"bet_rt":852,"block":2,"trial_type":"card_game","trial_index":61,"time_elapsed":888605,"internal_node_id":"0.0-61.0"},{"type":"card_game","game_type":"straight_flush","losers":false,"see_result":false,"my_hand":"h_2_1_2_1","opponent_hand":"h_2_1_0_0","win":true,"tie":false,"bet":0,"earnings":0,"expected_value":-0.390625,"expected_earnings":0,"bet_rt":683,"block":2,"trial_type":"card_game","trial_index":62,"time_elapsed":889790,"internal_node_id":"0.0-62.0"},{"type":"card_game","game_type":"straight_flush","losers":false,"see_result":false,"my_hand":"h_3_0_3_1","opponent_hand":"h_3_0_0_0","win":true,"tie":false,"bet":0,"earnings":0,"expected_value":0.1875,"expected_earnings":0,"bet_rt":1043,"block":2,"trial_type":"card_game","trial_index":63,"time_elapsed":891333,"internal_node_id":"0.0-63.0"},{"type":"card_game","game_type":"straight_flush","losers":false,"see_result":false,"my_hand":"h_3_1_3_1","opponent_hand":"h_2_0_0_1","win":true,"tie":false,"bet":0,"earnings":0,"expected_value":0.234375,"expected_earnings":0,"bet_rt":492,"block":2,"trial_type":"card_game","trial_index":64,"time_elapsed":892325,"internal_node_id":"0.0-64.0"},{"rt":4115.389999999083,"stimulus":"<p>You earned a performance bonus of 50 cents on this set of trials.</p><p>You have earned a performance bonus of 160 cents over the experiment so far, plus $1.50 for making it to this phase.</p><p>Press any key to continue.</p>","key_press":32,"trial_type":"html-keyboard-response","trial_index":65,"time_elapsed":896446,"internal_node_id":"0.0-65.0"},{"rt":2917.8549999997485,"stimulus":"<p><font color='red'><b>Now, we want you to try to lose the game! For the remainder of the experiment, if you bet and lose, you'll gain the amount you bet, and if you bet and win, you'll lose the amount you bet.</b></font></p><p>As before, you won't win or lose anything if you tie your opponent, or if you don't bet.</p><p>Press any key to continue.</p>","key_press":32,"trial_type":"html-keyboard-response","trial_index":66,"time_elapsed":899365,"internal_node_id":"0.0-66.0"},{"rt":3850.6000000016065,"responses":"{\"Q0\":\"Bet and my hand loses.\"}","question_order":"[0]","response_trial_type":"attention_check","trial_type":"survey-multi-choice","trial_index":67,"time_elapsed":903217,"internal_node_id":"0.0-67.0"},{"rt":4032.585000000894,"stimulus":"<p>Great, now you get to play a few hands!</p><p>As before, you won't see your results after you bet. You will just see your earnings at the end of the set of hands.</p><p>Press any key to continue.</p>","key_press":32,"trial_type":"html-keyboard-response","trial_index":68,"time_elapsed":907251,"internal_node_id":"0.0-68.0"},{"type":"card_game","game_type":"straight_flush","losers":true,"see_result":false,"my_hand":"h_0_0_3_0","opponent_hand":"h_2_1_3_0","win":true,"tie":false,"bet":2,"earnings":10,"expected_value":0.34375,"expected_earnings":3.4375,"bet_rt":25884,"block":3,"trial_type":"card_game","trial_index":69,"time_elapsed":933637,"internal_node_id":"0.0-69.0"},{"type":"card_game","game_type":"straight_flush","losers":true,"see_result":false,"my_hand":"h_1_0_1_0","opponent_hand":"h_3_0_1_1","win":true,"tie":false,"bet":2,"earnings":10,"expected_value":0.859375,"expected_earnings":8.59375,"bet_rt":1690,"block":3,"trial_type":"card_game","trial_index":70,"time_elapsed":935829,"internal_node_id":"0.0-70.0"},{"type":"card_game","game_type":"straight_flush","losers":true,"see_result":false,"my_hand":"h_3_1_2_1","opponent_hand":"h_2_1_0_0","win":false,"tie":false,"bet":0,"earnings":0,"expected_value":-0.96875,"expected_earnings":0,"bet_rt":834,"block":3,"trial_type":"card_game","trial_index":71,"time_elapsed":937166,"internal_node_id":"0.0-71.0"},{"type":"card_game","game_type":"straight_flush","losers":true,"see_result":false,"my_hand":"h_3_1_3_1","opponent_hand":"h_2_0_2_0","win":false,"tie":false,"bet":2,"earnings":-10,"expected_value":-0.234375,"expected_earnings":-2.34375,"bet_rt":1618,"block":3,"trial_type":"card_game","trial_index":72,"time_elapsed":939285,"internal_node_id":"0.0-72.0"},{"type":"card_game","game_type":"straight_flush","losers":true,"see_result":false,"my_hand":"h_1_0_3_0","opponent_hand":"h_2_0_0_1","win":false,"tie":false,"bet":2,"earnings":-10,"expected_value":0.09375,"expected_earnings":0.9375,"bet_rt":938,"block":3,"trial_type":"card_game","trial_index":73,"time_elapsed":940725,"internal_node_id":"0.0-73.0"},{"type":"card_game","game_type":"straight_flush","losers":true,"see_result":false,"my_hand":"h_1_0_2_0","opponent_hand":"h_3_1_1_1","win":false,"tie":false,"bet":0,"earnings":0,"expected_value":-0.78125,"expected_earnings":0,"bet_rt":835,"block":3,"trial_type":"card_game","trial_index":74,"time_elapsed":942061,"internal_node_id":"0.0-74.0"},{"type":"card_game","game_type":"straight_flush","losers":true,"see_result":false,"my_hand":"h_0_0_1_1","opponent_hand":"h_0_1_1_0","win":false,"tie":false,"bet":0,"earnings":0,"expected_value":-0.34375,"expected_earnings":0,"bet_rt":763,"block":3,"trial_type":"card_game","trial_index":75,"time_elapsed":943326,"internal_node_id":"0.0-75.0"},{"type":"card_game","game_type":"straight_flush","losers":true,"see_result":false,"my_hand":"h_2_0_2_1","opponent_hand":"h_1_1_0_1","win":true,"tie":false,"bet":2,"earnings":10,"expected_value":0.4375,"expected_earnings":4.375,"bet_rt":1163,"block":3,"trial_type":"card_game","trial_index":76,"time_elapsed":944989,"internal_node_id":"0.0-76.0"},{"type":"card_game","game_type":"straight_flush","losers":true,"see_result":false,"my_hand":"h_3_0_3_1","opponent_hand":"h_1_0_0_1","win":true,"tie":false,"bet":2,"earnings":10,"expected_value":-0.1875,"expected_earnings":-1.875,"bet_rt":763,"block":3,"trial_type":"card_game","trial_index":77,"time_elapsed":946254,"internal_node_id":"0.0-77.0"},{"type":"card_game","game_type":"straight_flush","losers":true,"see_result":false,"my_hand":"h_2_1_2_1","opponent_hand":"h_0_1_0_1","win":false,"tie":false,"bet":2,"earnings":-10,"expected_value":0.390625,"expected_earnings":3.90625,"bet_rt":1937,"block":3,"trial_type":"card_game","trial_index":78,"time_elapsed":948693,"internal_node_id":"0.0-78.0"},{"type":"card_game","game_type":"straight_flush","losers":true,"see_result":false,"my_hand":"h_2_1_0_1","opponent_hand":"h_3_0_1_0","win":true,"tie":false,"bet":0,"earnings":0,"expected_value":0.53125,"expected_earnings":0,"bet_rt":2395,"block":3,"trial_type":"card_game","trial_index":79,"time_elapsed":951590,"internal_node_id":"0.0-79.0"},{"type":"card_game","game_type":"straight_flush","losers":true,"see_result":false,"my_hand":"h_2_0_1_1","opponent_hand":"h_0_0_3_0","win":false,"tie":false,"bet":0,"earnings":0,"expected_value":-0.40625,"expected_earnings":0,"bet_rt":474,"block":3,"trial_type":"card_game","trial_index":80,"time_elapsed":952565,"internal_node_id":"0.0-80.0"},{"type":"card_game","game_type":"straight_flush","losers":true,"see_result":false,"my_hand":"h_0_1_0_0","opponent_hand":"h_3_0_1_0","win":true,"tie":false,"bet":0,"earnings":0,"expected_value":0.9375,"expected_earnings":0,"bet_rt":555,"block":3,"trial_type":"card_game","trial_index":81,"time_elapsed":953621,"internal_node_id":"0.0-81.0"},{"type":"card_game","game_type":"straight_flush","losers":true,"see_result":false,"my_hand":"h_0_0_3_1","opponent_hand":"h_2_1_2_1","win":false,"tie":false,"bet":2,"earnings":-10,"expected_value":0.21875,"expected_earnings":2.1875,"bet_rt":682,"block":3,"trial_type":"card_game","trial_index":82,"time_elapsed":954807,"internal_node_id":"0.0-82.0"},{"type":"card_game","game_type":"straight_flush","losers":true,"see_result":false,"my_hand":"h_3_1_3_1","opponent_hand":"h_3_1_1_1","win":false,"tie":false,"bet":2,"earnings":-10,"expected_value":-0.234375,"expected_earnings":-2.34375,"bet_rt":641,"block":3,"trial_type":"card_game","trial_index":83,"time_elapsed":955949,"internal_node_id":"0.0-83.0"},{"type":"card_game","game_type":"straight_flush","losers":true,"see_result":false,"my_hand":"h_1_0_0_0","opponent_hand":"h_0_1_3_0","win":false,"tie":false,"bet":0,"earnings":0,"expected_value":-0.65625,"expected_earnings":0,"bet_rt":1019,"block":3,"trial_type":"card_game","trial_index":84,"time_elapsed":957470,"internal_node_id":"0.0-84.0"},{"type":"card_game","game_type":"straight_flush","losers":true,"see_result":false,"my_hand":"h_2_1_0_1","opponent_hand":"h_2_1_2_0","win":true,"tie":false,"bet":0,"earnings":0,"expected_value":0.53125,"expected_earnings":0,"bet_rt":1226,"block":3,"trial_type":"card_game","trial_index":85,"time_elapsed":959196,"internal_node_id":"0.0-85.0"},{"type":"card_game","game_type":"straight_flush","losers":true,"see_result":false,"my_hand":"h_0_0_3_1","opponent_hand":"h_2_1_3_0","win":true,"tie":false,"bet":2,"earnings":10,"expected_value":0.21875,"expected_earnings":2.1875,"bet_rt":1619,"block":3,"trial_type":"card_game","trial_index":86,"time_elapsed":961316,"internal_node_id":"0.0-86.0"},{"type":"card_game","game_type":"straight_flush","losers":true,"see_result":false,"my_hand":"h_2_0_1_1","opponent_hand":"h_0_1_1_0","win":false,"tie":false,"bet":0,"earnings":0,"expected_value":-0.40625,"expected_earnings":0,"bet_rt":780,"block":3,"trial_type":"card_game","trial_index":87,"time_elapsed":962596,"internal_node_id":"0.0-87.0"},{"type":"card_game","game_type":"straight_flush","losers":true,"see_result":false,"my_hand":"h_2_1_0_0","opponent_hand":"h_0_0_3_1","win":true,"tie":false,"bet":2,"earnings":10,"expected_value":0.59375,"expected_earnings":5.9375,"bet_rt":1627,"block":3,"trial_type":"card_game","trial_index":88,"time_elapsed":964724,"internal_node_id":"0.0-88.0"},{"type":"card_game","game_type":"straight_flush","losers":true,"see_result":false,"my_hand":"h_0_0_1_0","opponent_hand":"h_1_0_1_1","win":false,"tie":false,"bet":0,"earnings":0,"expected_value":-0.65625,"expected_earnings":0,"bet_rt":883,"block":3,"trial_type":"card_game","trial_index":89,"time_elapsed":966109,"internal_node_id":"0.0-89.0"},{"type":"card_game","game_type":"straight_flush","losers":true,"see_result":false,"my_hand":"h_0_0_0_1","opponent_hand":"h_2_0_3_1","win":true,"tie":false,"bet":2,"earnings":10,"expected_value":0.9375,"expected_earnings":9.375,"bet_rt":1075,"block":3,"trial_type":"card_game","trial_index":90,"time_elapsed":967685,"internal_node_id":"0.0-90.0"},{"type":"card_game","game_type":"straight_flush","losers":true,"see_result":false,"my_hand":"h_1_0_0_0","opponent_hand":"h_0_0_1_1","win":false,"tie":false,"bet":0,"earnings":0,"expected_value":-0.65625,"expected_earnings":0,"bet_rt":1241,"block":3,"trial_type":"card_game","trial_index":91,"time_elapsed":969428,"internal_node_id":"0.0-91.0"},{"type":"card_game","game_type":"straight_flush","losers":true,"see_result":false,"my_hand":"h_2_1_3_1","opponent_hand":"h_2_0_2_1","win":false,"tie":false,"bet":0,"earnings":0,"expected_value":-0.96875,"expected_earnings":0,"bet_rt":1300,"block":3,"trial_type":"card_game","trial_index":92,"time_elapsed":971228,"internal_node_id":"0.0-92.0"},{"rt":1512.330000001355,"stimulus":"<p>You earned a performance bonus of 30 cents on this set of trials.</p><p>You have earned a performance bonus of 190 cents over the experiment so far, plus $1.50 for making it to this phase.</p><p>Press any key to continue.</p>","key_press":78,"trial_type":"html-keyboard-response","trial_index":93,"time_elapsed":972741,"internal_node_id":"0.0-93.0"},{"rt":921.6300000007031,"stimulus":"<p>Great, we just have a few questions to ask you and then you'll be finished!</p><p>Press any key to continue.</p>","key_press":32,"trial_type":"html-keyboard-response","trial_index":94,"time_elapsed":973664,"internal_node_id":"0.0-94.0"},{"rt":8350.565000000643,"responses":"{\"Q0\":3,\"Q1\":3,\"Q2\":3}","question_order":"[0,1,2]","response_trial_type":"debrief","trial_type":"survey-likert","trial_index":95,"time_elapsed":982016,"internal_node_id":"0.0-95.0"},{"rt":9445.195000000182,"responses":"{\"Q0\":\"35-45\",\"Q1\":\"Bachelor's degree\",\"Q2\":\"Male\",\"Q3\":\"Hispanic\"}","question_order":"[0,1,2,3]","response_trial_type":"demographics","trial_type":"survey-multi-choice","trial_index":96,"time_elapsed":991464,"internal_node_id":"0.0-96.0"},{"rt":4158.579999999376,"responses":"{\"Q0\":\"none\"}","response_trial_type":"comments","trial_type":"survey-text","trial_index":97,"time_elapsed":995631,"internal_node_id":"0.0-97.0"}]