[{"view_history":"[{\"page_index\":0,\"viewing_time\":993.9200000371784},{\"page_index\":1,\"viewing_time\":168.18999988026917},{\"page_index\":2,\"viewing_time\":776.1949999257922},{\"page_index\":3,\"viewing_time\":723.035000031814},{\"page_index\":4,\"viewing_time\":216.3200001232326},{\"page_index\":5,\"viewing_time\":780.2999999839813},{\"page_index\":6,\"viewing_time\":752.1349999587983}]","rt":4410.764999920502,"trial_type":"instructions","trial_index":0,"time_elapsed":4413,"internal_node_id":"0.0-0.0"},{"type":"hand_comparison","hand_win":"h_1_0_2_1","hand_lose":"h_3_0_0_0","explanation":"Adjacent cards beat non-adjacent.","hand_indices":[0,1],"hand_choice":0,"correct":true,"rt":1258,"trial_type":"hand_comparison","trial_index":1,"time_elapsed":7679,"internal_node_id":"0.0-1.0"},{"type":"hand_comparison","hand_win":"h_0_0_1_0","hand_lose":"h_3_0_2_1","explanation":"Same-suit adjacent beats different suit.","hand_indices":[1,0],"hand_choice":1,"correct":true,"rt":7509,"trial_type":"hand_comparison","trial_index":2,"time_elapsed":17191,"internal_node_id":"0.0-2.0"},{"type":"hand_comparison","hand_win":"h_3_0_0_1","hand_lose":"h_2_0_2_1","explanation":"Highest card breaks ties.","hand_indices":[0,1],"hand_choice":0,"correct":true,"rt":5248,"trial_type":"hand_comparison","trial_index":3,"time_elapsed":24442,"internal_node_id":"0.0-3.0"},{"type":"hand_comparison","hand_win":"h_3_1_2_1","hand_lose":"h_2_0_3_0","explanation":"Black cards beat red cards if the numbers are tied.","hand_indices":[0,1],"hand_choice":0,"correct":true,"rt":3380,"trial_type":"hand_comparison","trial_index":4,"time_elapsed":29825,"internal_node_id":"0.0-4.0"},{"rt":2426.549999974668,"stimulus":"<p><b>Congratulations, you passed the test, and will get to proceed to phase 2!</b></p><p>You have earned a $1.50 bonus, and will be awarded a performance bonus based on your bets in the next phase.</p><p>Press any key to continue.</p>","key_press":32,"trial_type":"html-keyboard-response","trial_index":5,"time_elapsed":32259,"internal_node_id":"0.0-5.0"},{"rt":4579.984999960288,"stimulus":"<p>Now you get to play a few hands. After you bet, we'll show you your opponent's hand and how much you won (or lost), and at the end of these hands we'll tell you your total earnings.</p><p>Press any key to continue.</p>","key_press":32,"trial_type":"html-keyboard-response","trial_index":6,"time_elapsed":36840,"internal_node_id":"0.0-6.0"},{"type":"card_game","game_type":"straight_flush","losers":false,"see_result":true,"my_hand":"h_1_0_1_0","opponent_hand":"h_3_0_1_1","win":false,"tie":false,"bet":0,"earnings":0,"expected_value":-0.859375,"expected_earnings":0,"bet_rt":4400,"block":1,"trial_type":"card_game","trial_index":7,"time_elapsed":42789,"internal_node_id":"0.0-7.0"},{"type":"card_game","game_type":"straight_flush","losers":false,"see_result":true,"my_hand":"h_2_1_2_0","opponent_hand":"h_1_0_1_0","win":true,"tie":false,"bet":0,"earnings":0,"expected_value":-0.4375,"expected_earnings":0,"bet_rt":3186,"block":1,"trial_type":"card_game","trial_index":8,"time_elapsed":47522,"internal_node_id":"0.0-8.0"},{"type":"card_game","game_type":"straight_flush","losers":false,"see_result":true,"my_hand":"h_1_1_2_1","opponent_hand":"h_0_1_2_1","win":true,"tie":false,"bet":2,"earnings":10,"expected_value":0.84375,"expected_earnings":8.4375,"bet_rt":2081,"block":1,"trial_type":"card_game","trial_index":9,"time_elapsed":51151,"internal_node_id":"0.0-9.0"},{"type":"card_game","game_type":"straight_flush","losers":false,"see_result":true,"my_hand":"h_3_0_0_0","opponent_hand":"h_1_1_2_0","win":false,"tie":false,"bet":1,"earnings":-5,"expected_value":-0.34375,"expected_earnings":-1.71875,"bet_rt":1793,"block":1,"trial_type":"card_game","trial_index":10,"time_elapsed":54481,"internal_node_id":"0.0-10.0"},{"type":"card_game","game_type":"straight_flush","losers":false,"see_result":true,"my_hand":"h_3_1_0_0","opponent_hand":"h_1_0_2_0","win":false,"tie":false,"bet":1,"earnings":-5,"expected_value":-0.21875,"expected_earnings":-1.09375,"bet_rt":1683,"block":1,"trial_type":"card_game","trial_index":11,"time_elapsed":57711,"internal_node_id":"0.0-11.0"},{"type":"card_game","game_type":"straight_flush","losers":false,"see_result":true,"my_hand":"h_0_0_1_1","opponent_hand":"h_0_0_1_1","win":false,"tie":true,"bet":1,"earnings":0,"expected_value":0.34375,"expected_earnings":1.71875,"bet_rt":1610,"block":1,"trial_type":"card_game","trial_index":12,"time_elapsed":60893,"internal_node_id":"0.0-12.0"},{"type":"card_game","game_type":"straight_flush","losers":false,"see_result":true,"my_hand":"h_2_1_1_0","opponent_hand":"h_2_1_2_0","win":true,"tie":false,"bet":1,"earnings":5,"expected_value":0.46875,"expected_earnings":2.34375,"bet_rt":1762,"block":1,"trial_type":"card_game","trial_index":13,"time_elapsed":64211,"internal_node_id":"0.0-13.0"},{"type":"card_game","game_type":"straight_flush","losers":false,"see_result":true,"my_hand":"h_3_0_2_1","opponent_hand":"h_0_0_1_1","win":true,"tie":false,"bet":2,"earnings":10,"expected_value":0.53125,"expected_earnings":5.3125,"bet_rt":2042,"block":1,"trial_type":"card_game","trial_index":14,"time_elapsed":67783,"internal_node_id":"0.0-14.0"},{"type":"card_game","game_type":"straight_flush","losers":false,"see_result":true,"my_hand":"h_3_0_3_0","opponent_hand":"h_3_1_3_0","win":false,"tie":false,"bet":0,"earnings":0,"expected_value":0.140625,"expected_earnings":0,"bet_rt":5509,"block":1,"trial_type":"card_game","trial_index":15,"time_elapsed":74845,"internal_node_id":"0.0-15.0"},{"type":"card_game","game_type":"straight_flush","losers":false,"see_result":true,"my_hand":"h_3_0_3_0","opponent_hand":"h_1_0_2_0","win":false,"tie":false,"bet":0,"earnings":0,"expected_value":0.140625,"expected_earnings":0,"bet_rt":1315,"block":1,"trial_type":"card_game","trial_index":16,"time_elapsed":77697,"internal_node_id":"0.0-16.0"},{"type":"card_game","game_type":"straight_flush","losers":false,"see_result":true,"my_hand":"h_3_0_1_0","opponent_hand":"h_3_1_1_1","win":false,"tie":false,"bet":2,"earnings":-10,"expected_value":-0.09375,"expected_earnings":-0.9375,"bet_rt":1992,"block":1,"trial_type":"card_game","trial_index":17,"time_elapsed":81227,"internal_node_id":"0.0-17.0"},{"type":"card_game","game_type":"straight_flush","losers":false,"see_result":true,"my_hand":"h_1_1_3_0","opponent_hand":"h_0_1_1_1","win":false,"tie":false,"bet":1,"earnings":-5,"expected_value":-0.03125,"expected_earnings":-0.15625,"bet_rt":3404,"block":1,"trial_type":"card_game","trial_index":18,"time_elapsed":86182,"internal_node_id":"0.0-18.0"},{"type":"card_game","game_type":"straight_flush","losers":false,"see_result":true,"my_hand":"h_0_1_3_1","opponent_hand":"h_1_1_1_0","win":true,"tie":false,"bet":2,"earnings":10,"expected_value":-0.15625,"expected_earnings":-1.5625,"bet_rt":2009,"block":1,"trial_type":"card_game","trial_index":19,"time_elapsed":89738,"internal_node_id":"0.0-19.0"},{"type":"card_game","game_type":"straight_flush","losers":false,"see_result":true,"my_hand":"h_1_1_0_0","opponent_hand":"h_0_0_0_1","win":true,"tie":false,"bet":1,"earnings":5,"expected_value":0.34375,"expected_earnings":1.71875,"bet_rt":1551,"block":1,"trial_type":"card_game","trial_index":20,"time_elapsed":92846,"internal_node_id":"0.0-20.0"},{"type":"card_game","game_type":"straight_flush","losers":false,"see_result":true,"my_hand":"h_0_0_2_0","opponent_hand":"h_2_0_2_0","win":false,"tie":false,"bet":2,"earnings":-10,"expected_value":-0.71875,"expected_earnings":-7.1875,"bet_rt":1735,"block":1,"trial_type":"card_game","trial_index":21,"time_elapsed":96145,"internal_node_id":"0.0-21.0"},{"type":"card_game","game_type":"straight_flush","losers":false,"see_result":true,"my_hand":"h_0_0_1_0","opponent_hand":"h_0_0_3_0","win":true,"tie":false,"bet":1,"earnings":5,"expected_value":0.65625,"expected_earnings":3.28125,"bet_rt":4019,"block":1,"trial_type":"card_game","trial_index":22,"time_elapsed":101713,"internal_node_id":"0.0-22.0"},{"type":"card_game","game_type":"straight_flush","losers":false,"see_result":true,"my_hand":"h_3_1_2_1","opponent_hand":"h_3_1_2_0","win":true,"tie":false,"bet":2,"earnings":10,"expected_value":0.96875,"expected_earnings":9.6875,"bet_rt":1973,"block":1,"trial_type":"card_game","trial_index":23,"time_elapsed":105219,"internal_node_id":"0.0-23.0"},{"type":"card_game","game_type":"straight_flush","losers":false,"see_result":true,"my_hand":"h_0_1_2_1","opponent_hand":"h_1_0_2_1","win":false,"tie":false,"bet":1,"earnings":-5,"expected_value":-0.53125,"expected_earnings":-2.65625,"bet_rt":1824,"block":1,"trial_type":"card_game","trial_index":24,"time_elapsed":108584,"internal_node_id":"0.0-24.0"},{"type":"card_game","game_type":"straight_flush","losers":false,"see_result":true,"my_hand":"h_0_0_0_1","opponent_hand":"h_0_0_3_0","win":false,"tie":false,"bet":0,"earnings":0,"expected_value":-0.9375,"expected_earnings":0,"bet_rt":1665,"block":1,"trial_type":"card_game","trial_index":25,"time_elapsed":111796,"internal_node_id":"0.0-25.0"},{"type":"card_game","game_type":"straight_flush","losers":false,"see_result":true,"my_hand":"h_2_1_3_0","opponent_hand":"h_0_1_2_1","win":true,"tie":false,"bet":1,"earnings":5,"expected_value":0.53125,"expected_earnings":2.65625,"bet_rt":1401,"block":1,"trial_type":"card_game","trial_index":26,"time_elapsed":114764,"internal_node_id":"0.0-26.0"},{"type":"card_game","game_type":"straight_flush","losers":false,"see_result":true,"my_hand":"h_3_1_1_0","opponent_hand":"h_0_1_3_1","win":true,"tie":false,"bet":2,"earnings":10,"expected_value":0.03125,"expected_earnings":0.3125,"bet_rt":2994,"block":1,"trial_type":"card_game","trial_index":27,"time_elapsed":119314,"internal_node_id":"0.0-27.0"},{"type":"card_game","game_type":"straight_flush","losers":false,"see_result":true,"my_hand":"h_0_1_0_1","opponent_hand":"h_2_1_0_1","win":false,"tie":false,"bet":0,"earnings":0,"expected_value":-0.890625,"expected_earnings":0,"bet_rt":1348,"block":1,"trial_type":"card_game","trial_index":28,"time_elapsed":122202,"internal_node_id":"0.0-28.0"},{"type":"card_game","game_type":"straight_flush","losers":false,"see_result":true,"my_hand":"h_1_1_1_1","opponent_hand":"h_3_1_1_0","win":false,"tie":false,"bet":0,"earnings":0,"expected_value":-0.765625,"expected_earnings":0,"bet_rt":1131,"block":1,"trial_type":"card_game","trial_index":29,"time_elapsed":124870,"internal_node_id":"0.0-29.0"},{"type":"card_game","game_type":"straight_flush","losers":false,"see_result":true,"my_hand":"h_1_0_3_1","opponent_hand":"h_0_1_1_0","win":false,"tie":false,"bet":1,"earnings":-5,"expected_value":0.03125,"expected_earnings":0.15625,"bet_rt":1604,"block":1,"trial_type":"card_game","trial_index":30,"time_elapsed":128023,"internal_node_id":"0.0-30.0"},{"type":"card_game","game_type":"straight_flush","losers":false,"see_result":true,"my_hand":"h_1_0_2_0","opponent_hand":"h_3_1_0_1","win":true,"tie":false,"bet":2,"earnings":10,"expected_value":0.78125,"expected_earnings":7.8125,"bet_rt":5665,"block":1,"trial_type":"card_game","trial_index":31,"time_elapsed":135238,"internal_node_id":"0.0-31.0"},{"type":"card_game","game_type":"straight_flush","losers":false,"see_result":true,"my_hand":"h_2_0_2_1","opponent_hand":"h_2_0_2_1","win":false,"tie":true,"bet":0,"earnings":0,"expected_value":-0.4375,"expected_earnings":0,"bet_rt":3021,"block":1,"trial_type":"card_game","trial_index":32,"time_elapsed":139793,"internal_node_id":"0.0-32.0"},{"type":"card_game","game_type":"straight_flush","losers":false,"see_result":true,"my_hand":"h_2_1_0_0","opponent_hand":"h_1_0_0_0","win":false,"tie":false,"bet":1,"earnings":-5,"expected_value":-0.59375,"expected_earnings":-2.96875,"bet_rt":2837,"block":1,"trial_type":"card_game","trial_index":33,"time_elapsed":144203,"internal_node_id":"0.0-33.0"},{"type":"card_game","game_type":"straight_flush","losers":false,"see_result":true,"my_hand":"h_2_0_0_1","opponent_hand":"h_1_0_1_0","win":true,"tie":false,"bet":1,"earnings":5,"expected_value":-0.65625,"expected_earnings":-3.28125,"bet_rt":2272,"block":1,"trial_type":"card_game","trial_index":34,"time_elapsed":148045,"internal_node_id":"0.0-34.0"},{"type":"card_game","game_type":"straight_flush","losers":false,"see_result":true,"my_hand":"h_1_1_2_0","opponent_hand":"h_1_0_1_0","win":true,"tie":false,"bet":1,"earnings":5,"expected_value":0.40625,"expected_earnings":2.03125,"bet_rt":1537,"block":1,"trial_type":"card_game","trial_index":35,"time_elapsed":151127,"internal_node_id":"0.0-35.0"},{"type":"card_game","game_type":"straight_flush","losers":false,"see_result":true,"my_hand":"h_3_0_2_0","opponent_hand":"h_0_0_3_0","win":true,"tie":false,"bet":2,"earnings":10,"expected_value":0.90625,"expected_earnings":9.0625,"bet_rt":1576,"block":1,"trial_type":"card_game","trial_index":36,"time_elapsed":154253,"internal_node_id":"0.0-36.0"},{"type":"card_game","game_type":"straight_flush","losers":false,"see_result":true,"my_hand":"h_0_0_3_0","opponent_hand":"h_1_0_2_1","win":false,"tie":false,"bet":2,"earnings":-10,"expected_value":-0.34375,"expected_earnings":-3.4375,"bet_rt":1342,"block":1,"trial_type":"card_game","trial_index":37,"time_elapsed":157156,"internal_node_id":"0.0-37.0"},{"type":"card_game","game_type":"straight_flush","losers":false,"see_result":true,"my_hand":"h_1_0_0_0","opponent_hand":"h_1_0_1_0","win":true,"tie":false,"bet":1,"earnings":5,"expected_value":0.65625,"expected_earnings":3.28125,"bet_rt":5160,"block":1,"trial_type":"card_game","trial_index":38,"time_elapsed":163870,"internal_node_id":"0.0-38.0"},{"rt":9981.319999787956,"stimulus":"<p>You earned a performance bonus of 45 cents on this set of trials, plus $1.50 for making it to this phase.</p><p>Press any key to continue.</p>","key_press":32,"trial_type":"html-keyboard-response","trial_index":39,"time_elapsed":173856,"internal_node_id":"0.0-39.0"},{"rt":5168.154999846593,"stimulus":"<p>To test how well you understand the game, we'll now give you a series of hands where you won't see your results after you bet. You will just see your earnings at the end of the set of hands.</p><p>Press any key to continue.</p>","key_press":32,"trial_type":"html-keyboard-response","trial_index":40,"time_elapsed":179024,"internal_node_id":"0.0-40.0"},{"type":"card_game","game_type":"straight_flush","losers":false,"see_result":false,"my_hand":"h_2_0_1_1","opponent_hand":"h_0_1_0_1","win":true,"tie":false,"bet":1,"earnings":5,"expected_value":0.40625,"expected_earnings":2.03125,"bet_rt":10144,"block":2,"trial_type":"card_game","trial_index":41,"time_elapsed":189669,"internal_node_id":"0.0-41.0"},{"type":"card_game","game_type":"straight_flush","losers":false,"see_result":false,"my_hand":"h_1_1_3_0","opponent_hand":"h_0_1_1_0","win":false,"tie":false,"bet":1,"earnings":-5,"expected_value":-0.03125,"expected_earnings":-0.15625,"bet_rt":3005,"block":2,"trial_type":"card_game","trial_index":42,"time_elapsed":193175,"internal_node_id":"0.0-42.0"},{"type":"card_game","game_type":"straight_flush","losers":false,"see_result":false,"my_hand":"h_3_1_0_0","opponent_hand":"h_0_1_1_1","win":false,"tie":false,"bet":1,"earnings":-5,"expected_value":-0.21875,"expected_earnings":-1.09375,"bet_rt":2201,"block":2,"trial_type":"card_game","trial_index":43,"time_elapsed":195878,"internal_node_id":"0.0-43.0"},{"type":"card_game","game_type":"straight_flush","losers":false,"see_result":false,"my_hand":"h_1_1_3_1","opponent_hand":"h_0_1_0_1","win":true,"tie":false,"bet":2,"earnings":10,"expected_value":0.09375,"expected_earnings":0.9375,"bet_rt":1525,"block":2,"trial_type":"card_game","trial_index":44,"time_elapsed":197903,"internal_node_id":"0.0-44.0"},{"type":"card_game","game_type":"straight_flush","losers":false,"see_result":false,"my_hand":"h_0_0_3_0","opponent_hand":"h_1_0_3_1","win":false,"tie":false,"bet":2,"earnings":-10,"expected_value":-0.34375,"expected_earnings":-3.4375,"bet_rt":2603,"block":2,"trial_type":"card_game","trial_index":45,"time_elapsed":201008,"internal_node_id":"0.0-45.0"},{"type":"card_game","game_type":"straight_flush","losers":false,"see_result":false,"my_hand":"h_3_0_1_0","opponent_hand":"h_0_0_3_0","win":true,"tie":false,"bet":2,"earnings":10,"expected_value":-0.09375,"expected_earnings":-0.9375,"bet_rt":2162,"block":2,"trial_type":"card_game","trial_index":46,"time_elapsed":203674,"internal_node_id":"0.0-46.0"},{"type":"card_game","game_type":"straight_flush","losers":false,"see_result":false,"my_hand":"h_2_1_3_0","opponent_hand":"h_3_0_0_0","win":true,"tie":false,"bet":1,"earnings":5,"expected_value":0.53125,"expected_earnings":2.65625,"bet_rt":1537,"block":2,"trial_type":"card_game","trial_index":47,"time_elapsed":205711,"internal_node_id":"0.0-47.0"},{"type":"card_game","game_type":"straight_flush","losers":false,"see_result":false,"my_hand":"h_1_1_2_1","opponent_hand":"h_0_1_0_0","win":true,"tie":false,"bet":1,"earnings":5,"expected_value":0.84375,"expected_earnings":4.21875,"bet_rt":1168,"block":2,"trial_type":"card_game","trial_index":48,"time_elapsed":207381,"internal_node_id":"0.0-48.0"},{"type":"card_game","game_type":"straight_flush","losers":false,"see_result":false,"my_hand":"h_1_1_3_1","opponent_hand":"h_2_0_0_1","win":true,"tie":false,"bet":2,"earnings":10,"expected_value":0.09375,"expected_earnings":0.9375,"bet_rt":1406,"block":2,"trial_type":"card_game","trial_index":49,"time_elapsed":209289,"internal_node_id":"0.0-49.0"},{"type":"card_game","game_type":"straight_flush","losers":false,"see_result":false,"my_hand":"h_0_0_2_0","opponent_hand":"h_2_0_2_1","win":false,"tie":false,"bet":1,"earnings":-5,"expected_value":-0.71875,"expected_earnings":-3.59375,"bet_rt":2744,"block":2,"trial_type":"card_game","trial_index":50,"time_elapsed":212534,"internal_node_id":"0.0-50.0"},{"type":"card_game","game_type":"straight_flush","losers":false,"see_result":false,"my_hand":"h_0_1_1_0","opponent_hand":"h_3_0_0_0","win":true,"tie":false,"bet":0,"earnings":0,"expected_value":0.28125,"expected_earnings":0,"bet_rt":1157,"block":2,"trial_type":"card_game","trial_index":51,"time_elapsed":214194,"internal_node_id":"0.0-51.0"},{"type":"card_game","game_type":"straight_flush","losers":false,"see_result":false,"my_hand":"h_2_0_2_0","opponent_hand":"h_1_0_1_1","win":true,"tie":false,"bet":0,"earnings":0,"expected_value":-0.484375,"expected_earnings":0,"bet_rt":761,"block":2,"trial_type":"card_game","trial_index":52,"time_elapsed":215456,"internal_node_id":"0.0-52.0"},{"type":"card_game","game_type":"straight_flush","losers":false,"see_result":false,"my_hand":"h_0_0_0_0","opponent_hand":"h_1_1_2_0","win":false,"tie":false,"bet":0,"earnings":0,"expected_value":-0.984375,"expected_earnings":0,"bet_rt":553,"block":2,"trial_type":"card_game","trial_index":53,"time_elapsed":216511,"internal_node_id":"0.0-53.0"},{"type":"card_game","game_type":"straight_flush","losers":false,"see_result":false,"my_hand":"h_1_1_0_0","opponent_hand":"h_2_0_2_1","win":true,"tie":false,"bet":0,"earnings":0,"expected_value":0.34375,"expected_earnings":0,"bet_rt":3156,"block":2,"trial_type":"card_game","trial_index":54,"time_elapsed":220169,"internal_node_id":"0.0-54.0"},{"type":"card_game","game_type":"straight_flush","losers":false,"see_result":false,"my_hand":"h_2_0_0_0","opponent_hand":"h_0_0_2_1","win":false,"tie":false,"bet":1,"earnings":-5,"expected_value":-0.71875,"expected_earnings":-3.59375,"bet_rt":1349,"block":2,"trial_type":"card_game","trial_index":55,"time_elapsed":222021,"internal_node_id":"0.0-55.0"},{"type":"card_game","game_type":"straight_flush","losers":false,"see_result":false,"my_hand":"h_2_1_0_0","opponent_hand":"h_2_1_1_0","win":false,"tie":false,"bet":0,"earnings":0,"expected_value":-0.59375,"expected_earnings":0,"bet_rt":2566,"block":2,"trial_type":"card_game","trial_index":56,"time_elapsed":225089,"internal_node_id":"0.0-56.0"},{"type":"card_game","game_type":"straight_flush","losers":false,"see_result":false,"my_hand":"h_0_1_0_0","opponent_hand":"h_3_1_1_0","win":false,"tie":false,"bet":0,"earnings":0,"expected_value":-0.9375,"expected_earnings":0,"bet_rt":988,"block":2,"trial_type":"card_game","trial_index":57,"time_elapsed":226580,"internal_node_id":"0.0-57.0"},{"type":"card_game","game_type":"straight_flush","losers":false,"see_result":false,"my_hand":"h_3_0_3_0","opponent_hand":"h_3_0_2_0","win":false,"tie":false,"bet":0,"earnings":0,"expected_value":0.140625,"expected_earnings":0,"bet_rt":4063,"block":2,"trial_type":"card_game","trial_index":58,"time_elapsed":231144,"internal_node_id":"0.0-58.0"},{"type":"card_game","game_type":"straight_flush","losers":false,"see_result":false,"my_hand":"h_3_0_2_1","opponent_hand":"h_0_0_2_1","win":true,"tie":false,"bet":1,"earnings":5,"expected_value":0.53125,"expected_earnings":2.65625,"bet_rt":1414,"block":2,"trial_type":"card_game","trial_index":59,"time_elapsed":233060,"internal_node_id":"0.0-59.0"},{"type":"card_game","game_type":"straight_flush","losers":false,"see_result":false,"my_hand":"h_3_1_2_1","opponent_hand":"h_0_0_3_1","win":true,"tie":false,"bet":2,"earnings":10,"expected_value":0.96875,"expected_earnings":9.6875,"bet_rt":1698,"block":2,"trial_type":"card_game","trial_index":60,"time_elapsed":235260,"internal_node_id":"0.0-60.0"},{"type":"card_game","game_type":"straight_flush","losers":false,"see_result":false,"my_hand":"h_1_0_1_1","opponent_hand":"h_2_1_2_0","win":false,"tie":false,"bet":0,"earnings":0,"expected_value":-0.8125,"expected_earnings":0,"bet_rt":1414,"block":2,"trial_type":"card_game","trial_index":61,"time_elapsed":237177,"internal_node_id":"0.0-61.0"},{"type":"card_game","game_type":"straight_flush","losers":false,"see_result":false,"my_hand":"h_3_0_0_0","opponent_hand":"h_1_0_0_1","win":false,"tie":false,"bet":1,"earnings":-5,"expected_value":-0.34375,"expected_earnings":-1.71875,"bet_rt":1445,"block":2,"trial_type":"card_game","trial_index":62,"time_elapsed":239123,"internal_node_id":"0.0-62.0"},{"type":"card_game","game_type":"straight_flush","losers":false,"see_result":false,"my_hand":"h_0_0_1_0","opponent_hand":"h_3_1_2_0","win":true,"tie":false,"bet":1,"earnings":5,"expected_value":0.65625,"expected_earnings":3.28125,"bet_rt":2260,"block":2,"trial_type":"card_game","trial_index":63,"time_elapsed":241890,"internal_node_id":"0.0-63.0"},{"type":"card_game","game_type":"straight_flush","losers":false,"see_result":false,"my_hand":"h_2_0_1_0","opponent_hand":"h_1_1_0_0","win":true,"tie":false,"bet":1,"earnings":5,"expected_value":0.78125,"expected_earnings":3.90625,"bet_rt":1185,"block":2,"trial_type":"card_game","trial_index":64,"time_elapsed":243576,"internal_node_id":"0.0-64.0"},{"rt":4735.499999951571,"stimulus":"<p>You earned a performance bonus of 20 cents on this set of trials.</p><p>You have earned a performance bonus of 65 cents over the experiment so far, plus $1.50 for making it to this phase.</p><p>Press any key to continue.</p>","key_press":32,"trial_type":"html-keyboard-response","trial_index":65,"time_elapsed":248315,"internal_node_id":"0.0-65.0"},{"rt":18540.294999955222,"stimulus":"<p><font color='red'><b>Now, we want you to try to lose the game! For the remainder of the experiment, if you bet and lose, you'll gain the amount you bet, and if you bet and win, you'll lose the amount you bet.</b></font></p><p>As before, you won't win or lose anything if you tie your opponent, or if you don't bet.</p><p>Press any key to continue.</p>","key_press":13,"trial_type":"html-keyboard-response","trial_index":66,"time_elapsed":266856,"internal_node_id":"0.0-66.0"},{"rt":13495.609999867156,"responses":"{\"Q0\":\"Bet and my hand loses.\"}","question_order":"[0]","response_trial_type":"attention_check","trial_type":"survey-multi-choice","trial_index":67,"time_elapsed":280353,"internal_node_id":"0.0-67.0"},{"rt":5480.209999950603,"stimulus":"<p>Great, now you get to play a few hands!</p><p>As before, you won't see your results after you bet. You will just see your earnings at the end of the set of hands.</p><p>Press any key to continue.</p>","key_press":32,"trial_type":"html-keyboard-response","trial_index":68,"time_elapsed":285834,"internal_node_id":"0.0-68.0"},{"type":"card_game","game_type":"straight_flush","losers":true,"see_result":false,"my_hand":"h_0_1_0_1","opponent_hand":"h_1_0_3_0","win":true,"tie":false,"bet":2,"earnings":10,"expected_value":0.890625,"expected_earnings":8.90625,"bet_rt":3394,"block":3,"trial_type":"card_game","trial_index":69,"time_elapsed":289729,"internal_node_id":"0.0-69.0"},{"type":"card_game","game_type":"straight_flush","losers":true,"see_result":false,"my_hand":"h_1_1_3_1","opponent_hand":"h_3_1_3_0","win":true,"tie":false,"bet":0,"earnings":0,"expected_value":-0.09375,"expected_earnings":0,"bet_rt":1931,"block":3,"trial_type":"card_game","trial_index":70,"time_elapsed":292161,"internal_node_id":"0.0-70.0"},{"type":"card_game","game_type":"straight_flush","losers":true,"see_result":false,"my_hand":"h_1_0_1_0","opponent_hand":"h_3_0_3_1","win":true,"tie":false,"bet":2,"earnings":10,"expected_value":0.859375,"expected_earnings":8.59375,"bet_rt":1459,"block":3,"trial_type":"card_game","trial_index":71,"time_elapsed":294122,"internal_node_id":"0.0-71.0"},{"type":"card_game","game_type":"straight_flush","losers":true,"see_result":false,"my_hand":"h_2_1_2_0","opponent_hand":"h_3_1_0_1","win":true,"tie":false,"bet":2,"earnings":10,"expected_value":0.4375,"expected_earnings":4.375,"bet_rt":3267,"block":3,"trial_type":"card_game","trial_index":72,"time_elapsed":297890,"internal_node_id":"0.0-72.0"},{"type":"card_game","game_type":"straight_flush","losers":true,"see_result":false,"my_hand":"h_1_0_2_1","opponent_hand":"h_0_0_1_1","win":false,"tie":false,"bet":2,"earnings":-10,"expected_value":-0.46875,"expected_earnings":-4.6875,"bet_rt":2172,"block":3,"trial_type":"card_game","trial_index":73,"time_elapsed":300563,"internal_node_id":"0.0-73.0"},{"type":"card_game","game_type":"straight_flush","losers":true,"see_result":false,"my_hand":"h_3_1_0_0","opponent_hand":"h_2_0_0_0","win":false,"tie":false,"bet":2,"earnings":-10,"expected_value":0.21875,"expected_earnings":2.1875,"bet_rt":944,"block":3,"trial_type":"card_game","trial_index":74,"time_elapsed":302008,"internal_node_id":"0.0-74.0"},{"type":"card_game","game_type":"straight_flush","losers":true,"see_result":false,"my_hand":"h_3_0_3_0","opponent_hand":"h_1_0_3_1","win":false,"tie":false,"bet":2,"earnings":-10,"expected_value":-0.140625,"expected_earnings":-1.40625,"bet_rt":1058,"block":3,"trial_type":"card_game","trial_index":75,"time_elapsed":303568,"internal_node_id":"0.0-75.0"},{"type":"card_game","game_type":"straight_flush","losers":true,"see_result":false,"my_hand":"h_2_0_3_1","opponent_hand":"h_3_1_0_1","win":false,"tie":false,"bet":0,"earnings":0,"expected_value":-0.59375,"expected_earnings":0,"bet_rt":3389,"block":3,"trial_type":"card_game","trial_index":76,"time_elapsed":307459,"internal_node_id":"0.0-76.0"},{"type":"card_game","game_type":"straight_flush","losers":true,"see_result":false,"my_hand":"h_1_1_1_1","opponent_hand":"h_1_1_0_1","win":true,"tie":false,"bet":2,"earnings":10,"expected_value":0.765625,"expected_earnings":7.65625,"bet_rt":1380,"block":3,"trial_type":"card_game","trial_index":77,"time_elapsed":309341,"internal_node_id":"0.0-77.0"},{"type":"card_game","game_type":"straight_flush","losers":true,"see_result":false,"my_hand":"h_3_0_2_1","opponent_hand":"h_0_1_1_1","win":true,"tie":false,"bet":0,"earnings":0,"expected_value":-0.53125,"expected_earnings":0,"bet_rt":1642,"block":3,"trial_type":"card_game","trial_index":78,"time_elapsed":311486,"internal_node_id":"0.0-78.0"},{"type":"card_game","game_type":"straight_flush","losers":true,"see_result":false,"my_hand":"h_2_0_1_0","opponent_hand":"h_3_1_2_0","win":false,"tie":false,"bet":0,"earnings":0,"expected_value":-0.78125,"expected_earnings":0,"bet_rt":1073,"block":3,"trial_type":"card_game","trial_index":79,"time_elapsed":313060,"internal_node_id":"0.0-79.0"},{"type":"card_game","game_type":"straight_flush","losers":true,"see_result":false,"my_hand":"h_0_1_1_0","opponent_hand":"h_2_1_0_1","win":false,"tie":false,"bet":2,"earnings":-10,"expected_value":-0.28125,"expected_earnings":-2.8125,"bet_rt":1137,"block":3,"trial_type":"card_game","trial_index":80,"time_elapsed":314698,"internal_node_id":"0.0-80.0"},{"type":"card_game","game_type":"straight_flush","losers":true,"see_result":false,"my_hand":"h_1_0_3_0","opponent_hand":"h_2_0_1_0","win":true,"tie":false,"bet":0,"earnings":0,"expected_value":0.09375,"expected_earnings":0,"bet_rt":1377,"block":3,"trial_type":"card_game","trial_index":81,"time_elapsed":316575,"internal_node_id":"0.0-81.0"},{"type":"card_game","game_type":"straight_flush","losers":true,"see_result":false,"my_hand":"h_2_1_1_1","opponent_hand":"h_2_1_3_0","win":false,"tie":false,"bet":1,"earnings":-5,"expected_value":-0.84375,"expected_earnings":-4.21875,"bet_rt":1107,"block":3,"trial_type":"card_game","trial_index":82,"time_elapsed":318183,"internal_node_id":"0.0-82.0"},{"type":"card_game","game_type":"straight_flush","losers":true,"see_result":false,"my_hand":"h_2_0_2_1","opponent_hand":"h_1_1_2_0","win":true,"tie":false,"bet":2,"earnings":10,"expected_value":0.4375,"expected_earnings":4.375,"bet_rt":1351,"block":3,"trial_type":"card_game","trial_index":83,"time_elapsed":320037,"internal_node_id":"0.0-83.0"},{"type":"card_game","game_type":"straight_flush","losers":true,"see_result":false,"my_hand":"h_1_0_2_1","opponent_hand":"h_3_0_2_1","win":true,"tie":false,"bet":0,"earnings":0,"expected_value":-0.46875,"expected_earnings":0,"bet_rt":1533,"block":3,"trial_type":"card_game","trial_index":84,"time_elapsed":322072,"internal_node_id":"0.0-84.0"},{"type":"card_game","game_type":"straight_flush","losers":true,"see_result":false,"my_hand":"h_2_0_0_1","opponent_hand":"h_3_0_2_1","win":true,"tie":false,"bet":0,"earnings":0,"expected_value":0.65625,"expected_earnings":0,"bet_rt":1463,"block":3,"trial_type":"card_game","trial_index":85,"time_elapsed":324036,"internal_node_id":"0.0-85.0"},{"type":"card_game","game_type":"straight_flush","losers":true,"see_result":false,"my_hand":"h_1_1_3_1","opponent_hand":"h_1_1_2_1","win":true,"tie":false,"bet":0,"earnings":0,"expected_value":-0.09375,"expected_earnings":0,"bet_rt":1072,"block":3,"trial_type":"card_game","trial_index":86,"time_elapsed":325609,"internal_node_id":"0.0-86.0"},{"type":"card_game","game_type":"straight_flush","losers":true,"see_result":false,"my_hand":"h_2_1_3_1","opponent_hand":"h_0_1_3_0","win":false,"tie":false,"bet":0,"earnings":0,"expected_value":-0.96875,"expected_earnings":0,"bet_rt":789,"block":3,"trial_type":"card_game","trial_index":87,"time_elapsed":326900,"internal_node_id":"0.0-87.0"},{"type":"card_game","game_type":"straight_flush","losers":true,"see_result":false,"my_hand":"h_0_1_2_0","opponent_hand":"h_3_1_2_0","win":true,"tie":false,"bet":2,"earnings":10,"expected_value":0.65625,"expected_earnings":6.5625,"bet_rt":1296,"block":3,"trial_type":"card_game","trial_index":88,"time_elapsed":328699,"internal_node_id":"0.0-88.0"},{"type":"card_game","game_type":"straight_flush","losers":true,"see_result":false,"my_hand":"h_0_0_3_0","opponent_hand":"h_2_1_0_0","win":false,"tie":false,"bet":0,"earnings":0,"expected_value":0.34375,"expected_earnings":0,"bet_rt":1008,"block":3,"trial_type":"card_game","trial_index":89,"time_elapsed":330207,"internal_node_id":"0.0-89.0"},{"type":"card_game","game_type":"straight_flush","losers":true,"see_result":false,"my_hand":"h_2_1_3_0","opponent_hand":"h_3_1_0_1","win":false,"tie":false,"bet":0,"earnings":0,"expected_value":-0.53125,"expected_earnings":0,"bet_rt":1103,"block":3,"trial_type":"card_game","trial_index":90,"time_elapsed":331811,"internal_node_id":"0.0-90.0"},{"type":"card_game","game_type":"straight_flush","losers":true,"see_result":false,"my_hand":"h_2_0_0_0","opponent_hand":"h_2_1_1_1","win":true,"tie":false,"bet":2,"earnings":10,"expected_value":0.71875,"expected_earnings":7.1875,"bet_rt":997,"block":3,"trial_type":"card_game","trial_index":91,"time_elapsed":333310,"internal_node_id":"0.0-91.0"},{"type":"card_game","game_type":"straight_flush","losers":true,"see_result":false,"my_hand":"h_0_1_3_1","opponent_hand":"h_0_0_0_0","win":false,"tie":false,"bet":0,"earnings":0,"expected_value":0.15625,"expected_earnings":0,"bet_rt":1141,"block":3,"trial_type":"card_game","trial_index":92,"time_elapsed":334952,"internal_node_id":"0.0-92.0"},{"rt":4121.835000114515,"stimulus":"<p>You earned a performance bonus of 40 cents on this set of trials.</p><p>You have earned a performance bonus of 105 cents over the experiment so far, plus $1.50 for making it to this phase.</p><p>Press any key to continue.</p>","key_press":16,"trial_type":"html-keyboard-response","trial_index":93,"time_elapsed":339076,"internal_node_id":"0.0-93.0"},{"rt":1509.5250001177192,"stimulus":"<p>Great, we just have a few questions to ask you and then you'll be finished!</p><p>Press any key to continue.</p>","key_press":16,"trial_type":"html-keyboard-response","trial_index":94,"time_elapsed":340586,"internal_node_id":"0.0-94.0"},{"rt":11979.814999969676,"responses":"{\"Q0\":2,\"Q1\":3,\"Q2\":2}","question_order":"[0,1,2]","response_trial_type":"debrief","trial_type":"survey-likert","trial_index":95,"time_elapsed":352569,"internal_node_id":"0.0-95.0"},{"rt":8378.440000116825,"responses":"{\"Q0\":\"25-35\",\"Q1\":\"Bachelor's degree\",\"Q2\":\"Male\",\"Q3\":\"White\"}","question_order":"[0,1,2,3]","response_trial_type":"demographics","trial_type":"survey-multi-choice","trial_index":96,"time_elapsed":360949,"internal_node_id":"0.0-96.0"},{"rt":12732.350000180304,"responses":"{\"Q0\":\"I think visuals could have helped during instructions or a video\"}","response_trial_type":"comments","trial_type":"survey-text","trial_index":97,"time_elapsed":373688,"internal_node_id":"0.0-97.0"}]