[{"view_history":"[{\"page_index\":0,\"viewing_time\":29966.0000000149},{\"page_index\":1,\"viewing_time\":3155.999999959022},{\"page_index\":2,\"viewing_time\":1634.000000078231},{\"page_index\":3,\"viewing_time\":5493.999999947846},{\"page_index\":4,\"viewing_time\":24081.99999993667},{\"page_index\":5,\"viewing_time\":2114.0000000596046},{\"page_index\":6,\"viewing_time\":8601.999999955297}]","rt":75054.00000000373,"trial_type":"instructions","trial_index":0,"time_elapsed":75062,"internal_node_id":"0.0-0.0"},{"type":"hand_comparison","hand_win":"h_1_0_2_1","hand_lose":"h_3_0_0_0","explanation":"Adjacent cards beat non-adjacent.","hand_indices":[0,1],"hand_choice":0,"correct":true,"rt":1964,"trial_type":"hand_comparison","trial_index":1,"time_elapsed":79044,"internal_node_id":"0.0-1.0"},{"type":"hand_comparison","hand_win":"h_0_0_1_0","hand_lose":"h_3_0_2_1","explanation":"Same-suit adjacent beats different suit.","hand_indices":[0,1],"hand_choice":0,"correct":true,"rt":3369,"trial_type":"hand_comparison","trial_index":2,"time_elapsed":84415,"internal_node_id":"0.0-2.0"},{"type":"hand_comparison","hand_win":"h_3_0_0_1","hand_lose":"h_2_0_2_1","explanation":"Highest card breaks ties.","hand_indices":[1,0],"hand_choice":1,"correct":true,"rt":2855,"trial_type":"hand_comparison","trial_index":3,"time_elapsed":89275,"internal_node_id":"0.0-3.0"},{"type":"hand_comparison","hand_win":"h_3_1_2_1","hand_lose":"h_2_0_3_0","explanation":"Black cards beat red cards if the numbers are tied.","hand_indices":[1,0],"hand_choice":1,"correct":true,"rt":3266,"trial_type":"hand_comparison","trial_index":4,"time_elapsed":94547,"internal_node_id":"0.0-4.0"},{"rt":12521.99999988079,"stimulus":"<p><b>Congratulations, you passed the test, and will get to proceed to phase 2!</b></p><p>You have earned a $1.50 bonus, and will be awarded a performance bonus based on your bets in the next phase.</p><p>Press any key to continue.</p>","key_press":32,"trial_type":"html-keyboard-response","trial_index":5,"time_elapsed":107070,"internal_node_id":"0.0-5.0"},{"rt":1748.9999998360872,"stimulus":"<p>Now you get to play a few hands. After you bet, we'll show you your opponent's hand and how much you won (or lost), and at the end of these hands we'll tell you your total earnings.</p><p>Press any key to continue.</p>","key_press":32,"trial_type":"html-keyboard-response","trial_index":6,"time_elapsed":108827,"internal_node_id":"0.0-6.0"},{"type":"card_game","game_type":"straight_flush","losers":false,"see_result":true,"my_hand":"h_2_1_3_0","opponent_hand":"h_2_0_1_1","win":true,"tie":false,"bet":2,"earnings":10,"expected_value":0.53125,"expected_earnings":5.3125,"bet_rt":11424,"block":1,"trial_type":"card_game","trial_index":7,"time_elapsed":122129,"internal_node_id":"0.0-7.0"},{"type":"card_game","game_type":"straight_flush","losers":false,"see_result":true,"my_hand":"h_2_1_0_1","opponent_hand":"h_1_1_3_0","win":false,"tie":false,"bet":1,"earnings":-5,"expected_value":-0.53125,"expected_earnings":-2.65625,"bet_rt":3514,"block":1,"trial_type":"card_game","trial_index":8,"time_elapsed":127315,"internal_node_id":"0.0-8.0"},{"type":"card_game","game_type":"straight_flush","losers":false,"see_result":true,"my_hand":"h_3_1_1_1","opponent_hand":"h_3_1_1_0","win":true,"tie":false,"bet":0,"earnings":0,"expected_value":0.09375,"expected_earnings":0,"bet_rt":4307,"block":1,"trial_type":"card_game","trial_index":9,"time_elapsed":133307,"internal_node_id":"0.0-9.0"},{"type":"card_game","game_type":"straight_flush","losers":false,"see_result":true,"my_hand":"h_1_0_2_0","opponent_hand":"h_0_1_3_1","win":true,"tie":false,"bet":1,"earnings":5,"expected_value":0.78125,"expected_earnings":3.90625,"bet_rt":3799,"block":1,"trial_type":"card_game","trial_index":10,"time_elapsed":138898,"internal_node_id":"0.0-10.0"},{"type":"card_game","game_type":"straight_flush","losers":false,"see_result":true,"my_hand":"h_2_1_3_0","opponent_hand":"h_1_1_1_1","win":true,"tie":false,"bet":2,"earnings":10,"expected_value":0.53125,"expected_earnings":5.3125,"bet_rt":1356,"block":1,"trial_type":"card_game","trial_index":11,"time_elapsed":141986,"internal_node_id":"0.0-11.0"},{"type":"card_game","game_type":"straight_flush","losers":false,"see_result":true,"my_hand":"h_0_0_3_1","opponent_hand":"h_0_1_2_1","win":true,"tie":false,"bet":1,"earnings":5,"expected_value":-0.21875,"expected_earnings":-1.09375,"bet_rt":1282,"block":1,"trial_type":"card_game","trial_index":12,"time_elapsed":144940,"internal_node_id":"0.0-12.0"},{"type":"card_game","game_type":"straight_flush","losers":false,"see_result":true,"my_hand":"h_3_1_3_0","opponent_hand":"h_3_1_0_1","win":true,"tie":false,"bet":2,"earnings":10,"expected_value":0.1875,"expected_earnings":1.875,"bet_rt":2560,"block":1,"trial_type":"card_game","trial_index":13,"time_elapsed":149476,"internal_node_id":"0.0-13.0"},{"type":"card_game","game_type":"straight_flush","losers":false,"see_result":true,"my_hand":"h_2_1_2_0","opponent_hand":"h_1_0_2_1","win":false,"tie":false,"bet":0,"earnings":0,"expected_value":-0.4375,"expected_earnings":0,"bet_rt":1342,"block":1,"trial_type":"card_game","trial_index":14,"time_elapsed":152497,"internal_node_id":"0.0-14.0"},{"type":"card_game","game_type":"straight_flush","losers":false,"see_result":true,"my_hand":"h_1_1_1_0","opponent_hand":"h_3_1_3_0","win":false,"tie":false,"bet":1,"earnings":-5,"expected_value":-0.8125,"expected_earnings":-4.0625,"bet_rt":4072,"block":1,"trial_type":"card_game","trial_index":15,"time_elapsed":158197,"internal_node_id":"0.0-15.0"},{"type":"card_game","game_type":"straight_flush","losers":false,"see_result":true,"my_hand":"h_1_1_0_0","opponent_hand":"h_3_0_1_0","win":true,"tie":false,"bet":0,"earnings":0,"expected_value":0.34375,"expected_earnings":0,"bet_rt":999,"block":1,"trial_type":"card_game","trial_index":16,"time_elapsed":160874,"internal_node_id":"0.0-16.0"},{"type":"card_game","game_type":"straight_flush","losers":false,"see_result":true,"my_hand":"h_0_0_3_0","opponent_hand":"h_1_0_2_0","win":false,"tie":false,"bet":1,"earnings":-5,"expected_value":-0.34375,"expected_earnings":-1.71875,"bet_rt":1315,"block":1,"trial_type":"card_game","trial_index":17,"time_elapsed":163882,"internal_node_id":"0.0-17.0"},{"type":"card_game","game_type":"straight_flush","losers":false,"see_result":true,"my_hand":"h_1_0_2_0","opponent_hand":"h_2_1_3_0","win":true,"tie":false,"bet":0,"earnings":0,"expected_value":0.78125,"expected_earnings":0,"bet_rt":1022,"block":1,"trial_type":"card_game","trial_index":18,"time_elapsed":166530,"internal_node_id":"0.0-18.0"},{"type":"card_game","game_type":"straight_flush","losers":false,"see_result":true,"my_hand":"h_2_0_1_1","opponent_hand":"h_1_1_2_1","win":false,"tie":false,"bet":2,"earnings":-10,"expected_value":0.40625,"expected_earnings":4.0625,"bet_rt":806,"block":1,"trial_type":"card_game","trial_index":19,"time_elapsed":169095,"internal_node_id":"0.0-19.0"},{"type":"card_game","game_type":"straight_flush","losers":false,"see_result":true,"my_hand":"h_0_1_0_0","opponent_hand":"h_1_0_3_0","win":false,"tie":false,"bet":0,"earnings":0,"expected_value":-0.9375,"expected_earnings":0,"bet_rt":832,"block":1,"trial_type":"card_game","trial_index":20,"time_elapsed":171650,"internal_node_id":"0.0-20.0"},{"type":"card_game","game_type":"straight_flush","losers":false,"see_result":true,"my_hand":"h_1_1_3_0","opponent_hand":"h_0_0_0_1","win":true,"tie":false,"bet":0,"earnings":0,"expected_value":-0.03125,"expected_earnings":0,"bet_rt":804,"block":1,"trial_type":"card_game","trial_index":21,"time_elapsed":174145,"internal_node_id":"0.0-21.0"},{"type":"card_game","game_type":"straight_flush","losers":false,"see_result":true,"my_hand":"h_0_1_0_1","opponent_hand":"h_2_1_3_1","win":false,"tie":false,"bet":0,"earnings":0,"expected_value":-0.890625,"expected_earnings":0,"bet_rt":671,"block":1,"trial_type":"card_game","trial_index":22,"time_elapsed":176525,"internal_node_id":"0.0-22.0"},{"type":"card_game","game_type":"straight_flush","losers":false,"see_result":true,"my_hand":"h_1_0_0_0","opponent_hand":"h_2_0_0_1","win":true,"tie":false,"bet":1,"earnings":5,"expected_value":0.65625,"expected_earnings":3.28125,"bet_rt":2690,"block":1,"trial_type":"card_game","trial_index":23,"time_elapsed":180889,"internal_node_id":"0.0-23.0"},{"type":"card_game","game_type":"straight_flush","losers":false,"see_result":true,"my_hand":"h_0_0_2_0","opponent_hand":"h_2_0_0_0","win":false,"tie":true,"bet":1,"earnings":0,"expected_value":-0.71875,"expected_earnings":-3.59375,"bet_rt":1011,"block":1,"trial_type":"card_game","trial_index":24,"time_elapsed":183503,"internal_node_id":"0.0-24.0"},{"type":"card_game","game_type":"straight_flush","losers":false,"see_result":true,"my_hand":"h_3_1_1_0","opponent_hand":"h_2_0_0_0","win":true,"tie":false,"bet":2,"earnings":10,"expected_value":0.03125,"expected_earnings":0.3125,"bet_rt":2123,"block":1,"trial_type":"card_game","trial_index":25,"time_elapsed":187250,"internal_node_id":"0.0-25.0"},{"type":"card_game","game_type":"straight_flush","losers":false,"see_result":true,"my_hand":"h_3_1_0_0","opponent_hand":"h_2_0_1_0","win":false,"tie":false,"bet":2,"earnings":-10,"expected_value":-0.21875,"expected_earnings":-2.1875,"bet_rt":2440,"block":1,"trial_type":"card_game","trial_index":26,"time_elapsed":191300,"internal_node_id":"0.0-26.0"},{"type":"card_game","game_type":"straight_flush","losers":false,"see_result":true,"my_hand":"h_0_1_3_0","opponent_hand":"h_2_1_0_0","win":true,"tie":false,"bet":1,"earnings":5,"expected_value":-0.28125,"expected_earnings":-1.40625,"bet_rt":1245,"block":1,"trial_type":"card_game","trial_index":27,"time_elapsed":194232,"internal_node_id":"0.0-27.0"},{"type":"card_game","game_type":"straight_flush","losers":false,"see_result":true,"my_hand":"h_2_0_0_0","opponent_hand":"h_2_1_1_0","win":false,"tie":false,"bet":1,"earnings":-5,"expected_value":-0.71875,"expected_earnings":-3.59375,"bet_rt":1299,"block":1,"trial_type":"card_game","trial_index":28,"time_elapsed":197224,"internal_node_id":"0.0-28.0"},{"type":"card_game","game_type":"straight_flush","losers":false,"see_result":true,"my_hand":"h_2_0_2_0","opponent_hand":"h_0_1_0_1","win":true,"tie":false,"bet":2,"earnings":10,"expected_value":-0.484375,"expected_earnings":-4.84375,"bet_rt":700,"block":1,"trial_type":"card_game","trial_index":29,"time_elapsed":199489,"internal_node_id":"0.0-29.0"},{"type":"card_game","game_type":"straight_flush","losers":false,"see_result":true,"my_hand":"h_2_0_3_0","opponent_hand":"h_3_1_3_0","win":true,"tie":false,"bet":2,"earnings":10,"expected_value":0.90625,"expected_earnings":9.0625,"bet_rt":2055,"block":1,"trial_type":"card_game","trial_index":30,"time_elapsed":203225,"internal_node_id":"0.0-30.0"},{"type":"card_game","game_type":"straight_flush","losers":false,"see_result":true,"my_hand":"h_2_1_1_0","opponent_hand":"h_0_0_0_0","win":true,"tie":false,"bet":1,"earnings":5,"expected_value":0.46875,"expected_earnings":2.34375,"bet_rt":7023,"block":1,"trial_type":"card_game","trial_index":31,"time_elapsed":211813,"internal_node_id":"0.0-31.0"},{"type":"card_game","game_type":"straight_flush","losers":false,"see_result":true,"my_hand":"h_3_0_3_1","opponent_hand":"h_0_1_2_0","win":true,"tie":false,"bet":2,"earnings":10,"expected_value":0.1875,"expected_earnings":1.875,"bet_rt":2124,"block":1,"trial_type":"card_game","trial_index":32,"time_elapsed":215543,"internal_node_id":"0.0-32.0"},{"type":"card_game","game_type":"straight_flush","losers":false,"see_result":true,"my_hand":"h_2_1_0_0","opponent_hand":"h_3_1_0_1","win":false,"tie":false,"bet":0,"earnings":0,"expected_value":-0.59375,"expected_earnings":0,"bet_rt":3000,"block":1,"trial_type":"card_game","trial_index":33,"time_elapsed":220093,"internal_node_id":"0.0-33.0"},{"type":"card_game","game_type":"straight_flush","losers":false,"see_result":true,"my_hand":"h_0_1_1_1","opponent_hand":"h_2_1_1_0","win":true,"tie":false,"bet":2,"earnings":10,"expected_value":0.71875,"expected_earnings":7.1875,"bet_rt":1296,"block":1,"trial_type":"card_game","trial_index":34,"time_elapsed":222996,"internal_node_id":"0.0-34.0"},{"type":"card_game","game_type":"straight_flush","losers":false,"see_result":true,"my_hand":"h_1_1_3_0","opponent_hand":"h_0_0_2_0","win":true,"tie":false,"bet":1,"earnings":5,"expected_value":-0.03125,"expected_earnings":-0.15625,"bet_rt":1810,"block":1,"trial_type":"card_game","trial_index":35,"time_elapsed":226448,"internal_node_id":"0.0-35.0"},{"type":"card_game","game_type":"straight_flush","losers":false,"see_result":true,"my_hand":"h_1_0_0_1","opponent_hand":"h_2_1_0_1","win":true,"tie":false,"bet":2,"earnings":10,"expected_value":0.28125,"expected_earnings":2.8125,"bet_rt":1795,"block":1,"trial_type":"card_game","trial_index":36,"time_elapsed":229880,"internal_node_id":"0.0-36.0"},{"type":"card_game","game_type":"straight_flush","losers":false,"see_result":true,"my_hand":"h_1_1_1_0","opponent_hand":"h_0_1_2_1","win":false,"tie":false,"bet":2,"earnings":-10,"expected_value":-0.8125,"expected_earnings":-8.125,"bet_rt":12608,"block":1,"trial_type":"card_game","trial_index":37,"time_elapsed":244092,"internal_node_id":"0.0-37.0"},{"type":"card_game","game_type":"straight_flush","losers":false,"see_result":true,"my_hand":"h_2_1_3_1","opponent_hand":"h_0_0_3_0","win":true,"tie":false,"bet":1,"earnings":5,"expected_value":0.96875,"expected_earnings":4.84375,"bet_rt":647,"block":1,"trial_type":"card_game","trial_index":38,"time_elapsed":246392,"internal_node_id":"0.0-38.0"},{"rt":7459.000000264496,"stimulus":"<p>You earned a performance bonus of 75 cents on this set of trials, plus $1.50 for making it to this phase.</p><p>Press any key to continue.</p>","key_press":32,"trial_type":"html-keyboard-response","trial_index":39,"time_elapsed":253853,"internal_node_id":"0.0-39.0"},{"rt":1842.9999998770654,"stimulus":"<p>To test how well you understand the game, we'll now give you a series of hands where you won't see your results after you bet. You will just see your earnings at the end of the set of hands.</p><p>Press any key to continue.</p>","key_press":32,"trial_type":"html-keyboard-response","trial_index":40,"time_elapsed":255697,"internal_node_id":"0.0-40.0"},{"type":"card_game","game_type":"straight_flush","losers":false,"see_result":false,"my_hand":"h_2_0_1_0","opponent_hand":"h_2_1_2_1","win":true,"tie":false,"bet":1,"earnings":5,"expected_value":0.78125,"expected_earnings":3.90625,"bet_rt":5443,"block":2,"trial_type":"card_game","trial_index":41,"time_elapsed":261640,"internal_node_id":"0.0-41.0"},{"type":"card_game","game_type":"straight_flush","losers":false,"see_result":false,"my_hand":"h_1_0_0_1","opponent_hand":"h_3_1_2_0","win":false,"tie":false,"bet":1,"earnings":-5,"expected_value":0.28125,"expected_earnings":1.40625,"bet_rt":1420,"block":2,"trial_type":"card_game","trial_index":42,"time_elapsed":263560,"internal_node_id":"0.0-42.0"},{"type":"card_game","game_type":"straight_flush","losers":false,"see_result":false,"my_hand":"h_1_1_3_0","opponent_hand":"h_3_1_2_1","win":false,"tie":false,"bet":2,"earnings":-10,"expected_value":-0.03125,"expected_earnings":-0.3125,"bet_rt":1661,"block":2,"trial_type":"card_game","trial_index":43,"time_elapsed":265726,"internal_node_id":"0.0-43.0"},{"type":"card_game","game_type":"straight_flush","losers":false,"see_result":false,"my_hand":"h_0_1_0_0","opponent_hand":"h_2_1_0_1","win":false,"tie":false,"bet":1,"earnings":-5,"expected_value":-0.9375,"expected_earnings":-4.6875,"bet_rt":1175,"block":2,"trial_type":"card_game","trial_index":44,"time_elapsed":267405,"internal_node_id":"0.0-44.0"},{"type":"card_game","game_type":"straight_flush","losers":false,"see_result":false,"my_hand":"h_3_0_1_0","opponent_hand":"h_0_0_0_1","win":true,"tie":false,"bet":2,"earnings":10,"expected_value":-0.09375,"expected_earnings":-0.9375,"bet_rt":1178,"block":2,"trial_type":"card_game","trial_index":45,"time_elapsed":269084,"internal_node_id":"0.0-45.0"},{"type":"card_game","game_type":"straight_flush","losers":false,"see_result":false,"my_hand":"h_2_0_0_0","opponent_hand":"h_2_0_2_1","win":false,"tie":false,"bet":0,"earnings":0,"expected_value":-0.71875,"expected_earnings":0,"bet_rt":623,"block":2,"trial_type":"card_game","trial_index":46,"time_elapsed":270207,"internal_node_id":"0.0-46.0"},{"type":"card_game","game_type":"straight_flush","losers":false,"see_result":false,"my_hand":"h_1_1_2_1","opponent_hand":"h_1_1_3_1","win":true,"tie":false,"bet":1,"earnings":5,"expected_value":0.84375,"expected_earnings":4.21875,"bet_rt":610,"block":2,"trial_type":"card_game","trial_index":47,"time_elapsed":271321,"internal_node_id":"0.0-47.0"},{"type":"card_game","game_type":"straight_flush","losers":false,"see_result":false,"my_hand":"h_2_0_0_1","opponent_hand":"h_3_0_0_1","win":false,"tie":false,"bet":2,"earnings":-10,"expected_value":-0.65625,"expected_earnings":-6.5625,"bet_rt":611,"block":2,"trial_type":"card_game","trial_index":48,"time_elapsed":272433,"internal_node_id":"0.0-48.0"},{"type":"card_game","game_type":"straight_flush","losers":false,"see_result":false,"my_hand":"h_2_1_3_0","opponent_hand":"h_0_1_2_0","win":true,"tie":false,"bet":1,"earnings":5,"expected_value":0.53125,"expected_earnings":2.65625,"bet_rt":617,"block":2,"trial_type":"card_game","trial_index":49,"time_elapsed":273551,"internal_node_id":"0.0-49.0"},{"type":"card_game","game_type":"straight_flush","losers":false,"see_result":false,"my_hand":"h_3_1_1_1","opponent_hand":"h_1_1_2_0","win":false,"tie":false,"bet":0,"earnings":0,"expected_value":0.09375,"expected_earnings":0,"bet_rt":1205,"block":2,"trial_type":"card_game","trial_index":50,"time_elapsed":275259,"internal_node_id":"0.0-50.0"},{"type":"card_game","game_type":"straight_flush","losers":false,"see_result":false,"my_hand":"h_2_1_3_0","opponent_hand":"h_2_0_3_1","win":false,"tie":false,"bet":1,"earnings":-5,"expected_value":0.53125,"expected_earnings":2.65625,"bet_rt":1264,"block":2,"trial_type":"card_game","trial_index":51,"time_elapsed":277028,"internal_node_id":"0.0-51.0"},{"type":"card_game","game_type":"straight_flush","losers":false,"see_result":false,"my_hand":"h_1_1_2_0","opponent_hand":"h_0_1_3_1","win":true,"tie":false,"bet":2,"earnings":10,"expected_value":0.40625,"expected_earnings":4.0625,"bet_rt":1816,"block":2,"trial_type":"card_game","trial_index":52,"time_elapsed":279345,"internal_node_id":"0.0-52.0"},{"type":"card_game","game_type":"straight_flush","losers":false,"see_result":false,"my_hand":"h_3_1_3_0","opponent_hand":"h_2_0_0_1","win":true,"tie":false,"bet":1,"earnings":5,"expected_value":0.1875,"expected_earnings":0.9375,"bet_rt":1223,"block":2,"trial_type":"card_game","trial_index":53,"time_elapsed":281069,"internal_node_id":"0.0-53.0"},{"type":"card_game","game_type":"straight_flush","losers":false,"see_result":false,"my_hand":"h_3_1_0_0","opponent_hand":"h_1_1_1_0","win":true,"tie":false,"bet":0,"earnings":0,"expected_value":-0.21875,"expected_earnings":0,"bet_rt":1641,"block":2,"trial_type":"card_game","trial_index":54,"time_elapsed":283213,"internal_node_id":"0.0-54.0"},{"type":"card_game","game_type":"straight_flush","losers":false,"see_result":false,"my_hand":"h_2_0_1_1","opponent_hand":"h_3_1_2_0","win":false,"tie":false,"bet":1,"earnings":-5,"expected_value":0.40625,"expected_earnings":2.03125,"bet_rt":1367,"block":2,"trial_type":"card_game","trial_index":55,"time_elapsed":285081,"internal_node_id":"0.0-55.0"},{"type":"card_game","game_type":"straight_flush","losers":false,"see_result":false,"my_hand":"h_3_0_0_1","opponent_hand":"h_1_1_0_0","win":false,"tie":false,"bet":2,"earnings":-10,"expected_value":-0.28125,"expected_earnings":-2.8125,"bet_rt":653,"block":2,"trial_type":"card_game","trial_index":56,"time_elapsed":286235,"internal_node_id":"0.0-56.0"},{"type":"card_game","game_type":"straight_flush","losers":false,"see_result":false,"my_hand":"h_2_0_2_1","opponent_hand":"h_3_0_0_1","win":false,"tie":false,"bet":1,"earnings":-5,"expected_value":-0.4375,"expected_earnings":-2.1875,"bet_rt":583,"block":2,"trial_type":"card_game","trial_index":57,"time_elapsed":287320,"internal_node_id":"0.0-57.0"},{"type":"card_game","game_type":"straight_flush","losers":false,"see_result":false,"my_hand":"h_1_1_1_0","opponent_hand":"h_1_1_3_0","win":false,"tie":false,"bet":2,"earnings":-10,"expected_value":-0.8125,"expected_earnings":-8.125,"bet_rt":1183,"block":2,"trial_type":"card_game","trial_index":58,"time_elapsed":289004,"internal_node_id":"0.0-58.0"},{"type":"card_game","game_type":"straight_flush","losers":false,"see_result":false,"my_hand":"h_0_0_1_0","opponent_hand":"h_3_0_2_0","win":false,"tie":false,"bet":1,"earnings":-5,"expected_value":0.65625,"expected_earnings":3.28125,"bet_rt":666,"block":2,"trial_type":"card_game","trial_index":59,"time_elapsed":290170,"internal_node_id":"0.0-59.0"},{"type":"card_game","game_type":"straight_flush","losers":false,"see_result":false,"my_hand":"h_0_0_0_0","opponent_hand":"h_3_1_3_1","win":false,"tie":false,"bet":0,"earnings":0,"expected_value":-0.984375,"expected_earnings":0,"bet_rt":2327,"block":2,"trial_type":"card_game","trial_index":60,"time_elapsed":292998,"internal_node_id":"0.0-60.0"},{"type":"card_game","game_type":"straight_flush","losers":false,"see_result":false,"my_hand":"h_3_1_2_1","opponent_hand":"h_3_1_3_0","win":true,"tie":false,"bet":1,"earnings":5,"expected_value":0.96875,"expected_earnings":4.84375,"bet_rt":1416,"block":2,"trial_type":"card_game","trial_index":61,"time_elapsed":294914,"internal_node_id":"0.0-61.0"},{"type":"card_game","game_type":"straight_flush","losers":false,"see_result":false,"my_hand":"h_3_0_3_1","opponent_hand":"h_3_0_3_1","win":false,"tie":true,"bet":2,"earnings":0,"expected_value":0.1875,"expected_earnings":1.875,"bet_rt":629,"block":2,"trial_type":"card_game","trial_index":62,"time_elapsed":296043,"internal_node_id":"0.0-62.0"},{"type":"card_game","game_type":"straight_flush","losers":false,"see_result":false,"my_hand":"h_0_1_3_0","opponent_hand":"h_2_1_2_0","win":true,"tie":false,"bet":1,"earnings":5,"expected_value":-0.28125,"expected_earnings":-1.40625,"bet_rt":645,"block":2,"trial_type":"card_game","trial_index":63,"time_elapsed":297188,"internal_node_id":"0.0-63.0"},{"type":"card_game","game_type":"straight_flush","losers":false,"see_result":false,"my_hand":"h_2_0_0_1","opponent_hand":"h_3_0_1_1","win":false,"tie":false,"bet":0,"earnings":0,"expected_value":-0.65625,"expected_earnings":0,"bet_rt":1161,"block":2,"trial_type":"card_game","trial_index":64,"time_elapsed":298850,"internal_node_id":"0.0-64.0"},{"rt":5881.999999750406,"stimulus":"<p>You earned a performance bonus of 0 cents on this set of trials.</p><p>You have earned a performance bonus of 75 cents over the experiment so far, plus $1.50 for making it to this phase.</p><p>Press any key to continue.</p>","key_press":32,"trial_type":"html-keyboard-response","trial_index":65,"time_elapsed":304771,"internal_node_id":"0.0-65.0"},{"rt":6526.0000000707805,"stimulus":"<p><font color='red'><b>Now, we want you to try to lose the game! For the remainder of the experiment, if you bet and lose, you'll gain the amount you bet, and if you bet and win, you'll lose the amount you bet.</b></font></p><p>As before, you won't win or lose anything if you tie your opponent, or if you don't bet.</p><p>Press any key to continue.</p>","key_press":32,"trial_type":"html-keyboard-response","trial_index":66,"time_elapsed":311304,"internal_node_id":"0.0-66.0"},{"rt":36811.99999991804,"responses":"{\"Q0\":\"Bet and my hand wins.\"}","question_order":"[0]","response_trial_type":"attention_check","trial_type":"survey-multi-choice","trial_index":67,"time_elapsed":348127,"internal_node_id":"0.0-67.0"},{"rt":2797.999999951571,"stimulus":"<p>Great, now you get to play a few hands!</p><p>As before, you won't see your results after you bet. You will just see your earnings at the end of the set of hands.</p><p>Press any key to continue.</p>","key_press":32,"trial_type":"html-keyboard-response","trial_index":68,"time_elapsed":350931,"internal_node_id":"0.0-68.0"},{"type":"card_game","game_type":"straight_flush","losers":true,"see_result":false,"my_hand":"h_2_1_1_0","opponent_hand":"h_1_0_3_1","win":false,"tie":false,"bet":1,"earnings":-5,"expected_value":-0.46875,"expected_earnings":-2.34375,"bet_rt":3341,"block":3,"trial_type":"card_game","trial_index":69,"time_elapsed":354774,"internal_node_id":"0.0-69.0"},{"type":"card_game","game_type":"straight_flush","losers":true,"see_result":false,"my_hand":"h_0_1_1_1","opponent_hand":"h_0_1_2_1","win":false,"tie":false,"bet":2,"earnings":-10,"expected_value":-0.71875,"expected_earnings":-7.1875,"bet_rt":2242,"block":3,"trial_type":"card_game","trial_index":70,"time_elapsed":357516,"internal_node_id":"0.0-70.0"},{"type":"card_game","game_type":"straight_flush","losers":true,"see_result":false,"my_hand":"h_2_1_2_0","opponent_hand":"h_1_1_1_1","win":false,"tie":false,"bet":1,"earnings":-5,"expected_value":0.4375,"expected_earnings":2.1875,"bet_rt":806,"block":3,"trial_type":"card_game","trial_index":71,"time_elapsed":358824,"internal_node_id":"0.0-71.0"},{"type":"card_game","game_type":"straight_flush","losers":true,"see_result":false,"my_hand":"h_1_0_1_1","opponent_hand":"h_1_1_1_1","win":true,"tie":false,"bet":1,"earnings":5,"expected_value":0.8125,"expected_earnings":4.0625,"bet_rt":611,"block":3,"trial_type":"card_game","trial_index":72,"time_elapsed":359935,"internal_node_id":"0.0-72.0"},{"type":"card_game","game_type":"straight_flush","losers":true,"see_result":false,"my_hand":"h_0_0_0_0","opponent_hand":"h_0_1_2_0","win":true,"tie":false,"bet":0,"earnings":0,"expected_value":0.984375,"expected_earnings":0,"bet_rt":1000,"block":3,"trial_type":"card_game","trial_index":73,"time_elapsed":361452,"internal_node_id":"0.0-73.0"},{"type":"card_game","game_type":"straight_flush","losers":true,"see_result":false,"my_hand":"h_0_1_1_1","opponent_hand":"h_2_1_1_1","win":true,"tie":false,"bet":1,"earnings":5,"expected_value":-0.71875,"expected_earnings":-3.59375,"bet_rt":682,"block":3,"trial_type":"card_game","trial_index":74,"time_elapsed":362637,"internal_node_id":"0.0-74.0"},{"type":"card_game","game_type":"straight_flush","losers":true,"see_result":false,"my_hand":"h_0_1_2_0","opponent_hand":"h_0_1_2_1","win":true,"tie":false,"bet":1,"earnings":5,"expected_value":0.65625,"expected_earnings":3.28125,"bet_rt":1460,"block":3,"trial_type":"card_game","trial_index":75,"time_elapsed":364598,"internal_node_id":"0.0-75.0"},{"type":"card_game","game_type":"straight_flush","losers":true,"see_result":false,"my_hand":"h_0_0_3_1","opponent_hand":"h_2_1_1_0","win":true,"tie":false,"bet":0,"earnings":0,"expected_value":0.21875,"expected_earnings":0,"bet_rt":889,"block":3,"trial_type":"card_game","trial_index":76,"time_elapsed":365987,"internal_node_id":"0.0-76.0"},{"type":"card_game","game_type":"straight_flush","losers":true,"see_result":false,"my_hand":"h_2_0_1_1","opponent_hand":"h_1_0_1_1","win":false,"tie":false,"bet":1,"earnings":-5,"expected_value":-0.40625,"expected_earnings":-2.03125,"bet_rt":869,"block":3,"trial_type":"card_game","trial_index":77,"time_elapsed":367357,"internal_node_id":"0.0-77.0"},{"type":"card_game","game_type":"straight_flush","losers":true,"see_result":false,"my_hand":"h_3_1_3_0","opponent_hand":"h_0_1_2_1","win":false,"tie":false,"bet":2,"earnings":-10,"expected_value":-0.1875,"expected_earnings":-1.875,"bet_rt":1628,"block":3,"trial_type":"card_game","trial_index":78,"time_elapsed":369487,"internal_node_id":"0.0-78.0"},{"type":"card_game","game_type":"straight_flush","losers":true,"see_result":false,"my_hand":"h_2_0_0_0","opponent_hand":"h_2_1_3_1","win":true,"tie":false,"bet":1,"earnings":5,"expected_value":0.71875,"expected_earnings":3.59375,"bet_rt":670,"block":3,"trial_type":"card_game","trial_index":79,"time_elapsed":370658,"internal_node_id":"0.0-79.0"},{"type":"card_game","game_type":"straight_flush","losers":true,"see_result":false,"my_hand":"h_0_1_2_1","opponent_hand":"h_1_0_0_1","win":true,"tie":false,"bet":1,"earnings":5,"expected_value":0.53125,"expected_earnings":2.65625,"bet_rt":936,"block":3,"trial_type":"card_game","trial_index":80,"time_elapsed":372096,"internal_node_id":"0.0-80.0"},{"type":"card_game","game_type":"straight_flush","losers":true,"see_result":false,"my_hand":"h_1_0_2_0","opponent_hand":"h_0_1_3_0","win":false,"tie":false,"bet":2,"earnings":-10,"expected_value":-0.78125,"expected_earnings":-7.8125,"bet_rt":1023,"block":3,"trial_type":"card_game","trial_index":81,"time_elapsed":373621,"internal_node_id":"0.0-81.0"},{"type":"card_game","game_type":"straight_flush","losers":true,"see_result":false,"my_hand":"h_3_0_0_1","opponent_hand":"h_3_1_2_1","win":true,"tie":false,"bet":1,"earnings":5,"expected_value":0.28125,"expected_earnings":1.40625,"bet_rt":958,"block":3,"trial_type":"card_game","trial_index":82,"time_elapsed":375080,"internal_node_id":"0.0-82.0"},{"type":"card_game","game_type":"straight_flush","losers":true,"see_result":false,"my_hand":"h_1_1_3_0","opponent_hand":"h_1_0_2_0","win":true,"tie":false,"bet":1,"earnings":5,"expected_value":0.03125,"expected_earnings":0.15625,"bet_rt":765,"block":3,"trial_type":"card_game","trial_index":83,"time_elapsed":376347,"internal_node_id":"0.0-83.0"},{"type":"card_game","game_type":"straight_flush","losers":true,"see_result":false,"my_hand":"h_1_1_0_0","opponent_hand":"h_1_1_0_0","win":false,"tie":true,"bet":1,"earnings":0,"expected_value":-0.34375,"expected_earnings":-1.71875,"bet_rt":672,"block":3,"trial_type":"card_game","trial_index":84,"time_elapsed":377524,"internal_node_id":"0.0-84.0"},{"type":"card_game","game_type":"straight_flush","losers":true,"see_result":false,"my_hand":"h_0_1_3_0","opponent_hand":"h_1_0_2_0","win":true,"tie":false,"bet":1,"earnings":5,"expected_value":0.28125,"expected_earnings":1.40625,"bet_rt":750,"block":3,"trial_type":"card_game","trial_index":85,"time_elapsed":378781,"internal_node_id":"0.0-85.0"},{"type":"card_game","game_type":"straight_flush","losers":true,"see_result":false,"my_hand":"h_3_1_1_0","opponent_hand":"h_0_1_3_0","win":false,"tie":false,"bet":0,"earnings":0,"expected_value":-0.03125,"expected_earnings":0,"bet_rt":1339,"block":3,"trial_type":"card_game","trial_index":86,"time_elapsed":380621,"internal_node_id":"0.0-86.0"},{"type":"card_game","game_type":"straight_flush","losers":true,"see_result":false,"my_hand":"h_2_1_1_1","opponent_hand":"h_1_0_0_0","win":false,"tie":false,"bet":2,"earnings":-10,"expected_value":-0.84375,"expected_earnings":-8.4375,"bet_rt":1096,"block":3,"trial_type":"card_game","trial_index":87,"time_elapsed":382218,"internal_node_id":"0.0-87.0"},{"type":"card_game","game_type":"straight_flush","losers":true,"see_result":false,"my_hand":"h_1_1_1_0","opponent_hand":"h_1_1_1_0","win":false,"tie":true,"bet":1,"earnings":0,"expected_value":0.8125,"expected_earnings":4.0625,"bet_rt":656,"block":3,"trial_type":"card_game","trial_index":88,"time_elapsed":383375,"internal_node_id":"0.0-88.0"},{"type":"card_game","game_type":"straight_flush","losers":true,"see_result":false,"my_hand":"h_3_1_2_0","opponent_hand":"h_2_1_2_0","win":false,"tie":false,"bet":0,"earnings":0,"expected_value":-0.59375,"expected_earnings":0,"bet_rt":878,"block":3,"trial_type":"card_game","trial_index":89,"time_elapsed":384755,"internal_node_id":"0.0-89.0"},{"type":"card_game","game_type":"straight_flush","losers":true,"see_result":false,"my_hand":"h_3_0_1_0","opponent_hand":"h_0_0_1_0","win":true,"tie":false,"bet":1,"earnings":5,"expected_value":0.09375,"expected_earnings":0.46875,"bet_rt":517,"block":3,"trial_type":"card_game","trial_index":90,"time_elapsed":385773,"internal_node_id":"0.0-90.0"},{"type":"card_game","game_type":"straight_flush","losers":true,"see_result":false,"my_hand":"h_3_1_3_0","opponent_hand":"h_0_0_3_0","win":false,"tie":false,"bet":2,"earnings":-10,"expected_value":-0.1875,"expected_earnings":-1.875,"bet_rt":1132,"block":3,"trial_type":"card_game","trial_index":91,"time_elapsed":387407,"internal_node_id":"0.0-91.0"},{"type":"card_game","game_type":"straight_flush","losers":true,"see_result":false,"my_hand":"h_3_1_2_1","opponent_hand":"h_1_1_3_0","win":false,"tie":false,"bet":1,"earnings":-5,"expected_value":-0.96875,"expected_earnings":-4.84375,"bet_rt":658,"block":3,"trial_type":"card_game","trial_index":92,"time_elapsed":388566,"internal_node_id":"0.0-92.0"},{"rt":8557.000000029802,"stimulus":"<p>You earned a performance bonus of -20 cents on this set of trials.</p><p>You have earned a performance bonus of 55 cents over the experiment so far, plus $1.50 for making it to this phase.</p><p>Press any key to continue.</p>","key_press":32,"trial_type":"html-keyboard-response","trial_index":93,"time_elapsed":397124,"internal_node_id":"0.0-93.0"},{"rt":1984.9999998696148,"stimulus":"<p>Great, we just have a few questions to ask you and then you'll be finished!</p><p>Press any key to continue.</p>","key_press":32,"trial_type":"html-keyboard-response","trial_index":94,"time_elapsed":399110,"internal_node_id":"0.0-94.0"},{"rt":10637.000000104308,"responses":"{\"Q0\":3,\"Q1\":2,\"Q2\":2}","question_order":"[0,1,2]","response_trial_type":"debrief","trial_type":"survey-likert","trial_index":95,"time_elapsed":409752,"internal_node_id":"0.0-95.0"},{"rt":16217.000000178814,"responses":"{\"Q0\":\"35-45\",\"Q1\":\"Bachelor's degree\",\"Q2\":\"Female\",\"Q3\":\"White\"}","question_order":"[0,1,2,3]","response_trial_type":"demographics","trial_type":"survey-multi-choice","trial_index":96,"time_elapsed":425972,"internal_node_id":"0.0-96.0"},{"rt":8029.000000096858,"responses":"{\"Q0\":\"none.\"}","response_trial_type":"comments","trial_type":"survey-text","trial_index":97,"time_elapsed":434070,"internal_node_id":"0.0-97.0"}]