[{"view_history":"[{\"page_index\":0,\"viewing_time\":4628.639999777079},{\"page_index\":1,\"viewing_time\":5949.705000035465},{\"page_index\":2,\"viewing_time\":8643.950000405312},{\"page_index\":3,\"viewing_time\":10591.864999383688},{\"page_index\":4,\"viewing_time\":9768.415000289679},{\"page_index\":5,\"viewing_time\":14327.475000172853},{\"page_index\":6,\"viewing_time\":5368.56499966234}]","rt":59279.19999975711,"trial_type":"instructions","trial_index":0,"time_elapsed":59281,"internal_node_id":"0.0-0.0"},{"type":"hand_comparison","hand_win":"h_1_0_2_1","hand_lose":"h_3_0_0_0","explanation":"Adjacent cards beat non-adjacent.","hand_indices":[0,1],"hand_choice":0,"correct":true,"rt":10211,"trial_type":"hand_comparison","trial_index":1,"time_elapsed":71499,"internal_node_id":"0.0-1.0"},{"type":"hand_comparison","hand_win":"h_0_0_1_0","hand_lose":"h_3_0_2_1","explanation":"Same-suit adjacent beats different suit.","hand_indices":[0,1],"hand_choice":0,"correct":true,"rt":4044,"trial_type":"hand_comparison","trial_index":2,"time_elapsed":77545,"internal_node_id":"0.0-2.0"},{"type":"hand_comparison","hand_win":"h_3_0_0_1","hand_lose":"h_2_0_2_1","explanation":"Highest card breaks ties.","hand_indices":[1,0],"hand_choice":1,"correct":true,"rt":8818,"trial_type":"hand_comparison","trial_index":3,"time_elapsed":88365,"internal_node_id":"0.0-3.0"},{"type":"hand_comparison","hand_win":"h_3_1_2_1","hand_lose":"h_2_0_3_0","explanation":"Black cards beat red cards if the numbers are tied.","hand_indices":[0,1],"hand_choice":0,"correct":true,"rt":5229,"trial_type":"hand_comparison","trial_index":4,"time_elapsed":95598,"internal_node_id":"0.0-4.0"},{"rt":3452.250000089407,"stimulus":"<p><b>Congratulations, you passed the test, and will get to proceed to phase 2!</b></p><p>You have earned a $1.50 bonus, and will be awarded a performance bonus based on your bets in the next phase.</p><p>Press any key to continue.</p>","key_press":68,"trial_type":"html-keyboard-response","trial_index":5,"time_elapsed":99052,"internal_node_id":"0.0-5.0"},{"rt":3808.2999996840954,"stimulus":"<p>Now you get to play a few hands. After you bet, we'll show you your opponent's hand and how much you won (or lost), and at the end of these hands we'll tell you your total earnings.</p><p>Press any key to continue.</p>","key_press":68,"trial_type":"html-keyboard-response","trial_index":6,"time_elapsed":102861,"internal_node_id":"0.0-6.0"},{"type":"card_game","game_type":"straight_flush","losers":false,"see_result":true,"my_hand":"h_3_0_2_1","opponent_hand":"h_0_0_1_1","win":true,"tie":false,"bet":1,"earnings":5,"expected_value":0.53125,"expected_earnings":2.65625,"bet_rt":4995,"block":1,"trial_type":"card_game","trial_index":7,"time_elapsed":109410,"internal_node_id":"0.0-7.0"},{"type":"card_game","game_type":"straight_flush","losers":false,"see_result":true,"my_hand":"h_3_1_3_1","opponent_hand":"h_3_1_1_0","win":true,"tie":false,"bet":0,"earnings":0,"expected_value":0.234375,"expected_earnings":0,"bet_rt":2334,"block":1,"trial_type":"card_game","trial_index":8,"time_elapsed":113274,"internal_node_id":"0.0-8.0"},{"type":"card_game","game_type":"straight_flush","losers":false,"see_result":true,"my_hand":"h_2_1_0_1","opponent_hand":"h_2_1_0_1","win":false,"tie":true,"bet":0,"earnings":0,"expected_value":-0.53125,"expected_earnings":0,"bet_rt":2765,"block":1,"trial_type":"card_game","trial_index":9,"time_elapsed":117586,"internal_node_id":"0.0-9.0"},{"type":"card_game","game_type":"straight_flush","losers":false,"see_result":true,"my_hand":"h_0_1_2_0","opponent_hand":"h_3_1_2_0","win":false,"tie":false,"bet":1,"earnings":-5,"expected_value":-0.65625,"expected_earnings":-3.28125,"bet_rt":1340,"block":1,"trial_type":"card_game","trial_index":10,"time_elapsed":120474,"internal_node_id":"0.0-10.0"},{"type":"card_game","game_type":"straight_flush","losers":false,"see_result":true,"my_hand":"h_0_0_2_0","opponent_hand":"h_1_1_3_1","win":false,"tie":false,"bet":0,"earnings":0,"expected_value":-0.71875,"expected_earnings":0,"bet_rt":1542,"block":1,"trial_type":"card_game","trial_index":11,"time_elapsed":123555,"internal_node_id":"0.0-11.0"},{"type":"card_game","game_type":"straight_flush","losers":false,"see_result":true,"my_hand":"h_0_1_3_0","opponent_hand":"h_2_0_3_0","win":false,"tie":false,"bet":0,"earnings":0,"expected_value":-0.28125,"expected_earnings":0,"bet_rt":1188,"block":1,"trial_type":"card_game","trial_index":12,"time_elapsed":126282,"internal_node_id":"0.0-12.0"},{"type":"card_game","game_type":"straight_flush","losers":false,"see_result":true,"my_hand":"h_3_1_1_0","opponent_hand":"h_0_1_2_0","win":true,"tie":false,"bet":0,"earnings":0,"expected_value":0.03125,"expected_earnings":0,"bet_rt":908,"block":1,"trial_type":"card_game","trial_index":13,"time_elapsed":128729,"internal_node_id":"0.0-13.0"},{"type":"card_game","game_type":"straight_flush","losers":false,"see_result":true,"my_hand":"h_1_1_1_1","opponent_hand":"h_1_1_3_1","win":false,"tie":false,"bet":0,"earnings":0,"expected_value":-0.765625,"expected_earnings":0,"bet_rt":1531,"block":1,"trial_type":"card_game","trial_index":14,"time_elapsed":131804,"internal_node_id":"0.0-14.0"},{"type":"card_game","game_type":"straight_flush","losers":false,"see_result":true,"my_hand":"h_0_1_3_1","opponent_hand":"h_1_0_1_0","win":true,"tie":false,"bet":0,"earnings":0,"expected_value":-0.15625,"expected_earnings":0,"bet_rt":1611,"block":1,"trial_type":"card_game","trial_index":15,"time_elapsed":134953,"internal_node_id":"0.0-15.0"},{"type":"card_game","game_type":"straight_flush","losers":false,"see_result":true,"my_hand":"h_2_1_1_1","opponent_hand":"h_1_1_1_1","win":true,"tie":false,"bet":2,"earnings":10,"expected_value":0.84375,"expected_earnings":8.4375,"bet_rt":1221,"block":1,"trial_type":"card_game","trial_index":16,"time_elapsed":137719,"internal_node_id":"0.0-16.0"},{"type":"card_game","game_type":"straight_flush","losers":false,"see_result":true,"my_hand":"h_2_0_2_0","opponent_hand":"h_0_0_1_1","win":false,"tie":false,"bet":0,"earnings":0,"expected_value":-0.484375,"expected_earnings":0,"bet_rt":2016,"block":1,"trial_type":"card_game","trial_index":17,"time_elapsed":141271,"internal_node_id":"0.0-17.0"},{"type":"card_game","game_type":"straight_flush","losers":false,"see_result":true,"my_hand":"h_1_0_2_1","opponent_hand":"h_3_1_1_1","win":true,"tie":false,"bet":2,"earnings":10,"expected_value":0.46875,"expected_earnings":4.6875,"bet_rt":1361,"block":1,"trial_type":"card_game","trial_index":18,"time_elapsed":144162,"internal_node_id":"0.0-18.0"},{"type":"card_game","game_type":"straight_flush","losers":false,"see_result":true,"my_hand":"h_1_1_1_1","opponent_hand":"h_0_1_1_0","win":false,"tie":false,"bet":0,"earnings":0,"expected_value":-0.765625,"expected_earnings":0,"bet_rt":1239,"block":1,"trial_type":"card_game","trial_index":19,"time_elapsed":146939,"internal_node_id":"0.0-19.0"},{"type":"card_game","game_type":"straight_flush","losers":false,"see_result":true,"my_hand":"h_1_1_3_1","opponent_hand":"h_3_0_1_1","win":true,"tie":false,"bet":1,"earnings":5,"expected_value":0.09375,"expected_earnings":0.46875,"bet_rt":1130,"block":1,"trial_type":"card_game","trial_index":20,"time_elapsed":149606,"internal_node_id":"0.0-20.0"},{"type":"card_game","game_type":"straight_flush","losers":false,"see_result":true,"my_hand":"h_3_1_3_1","opponent_hand":"h_1_0_3_0","win":true,"tie":false,"bet":0,"earnings":0,"expected_value":0.234375,"expected_earnings":0,"bet_rt":1487,"block":1,"trial_type":"card_game","trial_index":21,"time_elapsed":152638,"internal_node_id":"0.0-21.0"},{"type":"card_game","game_type":"straight_flush","losers":false,"see_result":true,"my_hand":"h_1_0_0_0","opponent_hand":"h_2_0_0_1","win":true,"tie":false,"bet":2,"earnings":10,"expected_value":0.65625,"expected_earnings":6.5625,"bet_rt":879,"block":1,"trial_type":"card_game","trial_index":22,"time_elapsed":155059,"internal_node_id":"0.0-22.0"},{"type":"card_game","game_type":"straight_flush","losers":false,"see_result":true,"my_hand":"h_0_1_0_0","opponent_hand":"h_2_1_3_0","win":false,"tie":false,"bet":0,"earnings":0,"expected_value":-0.9375,"expected_earnings":0,"bet_rt":2052,"block":1,"trial_type":"card_game","trial_index":23,"time_elapsed":158653,"internal_node_id":"0.0-23.0"},{"type":"card_game","game_type":"straight_flush","losers":false,"see_result":true,"my_hand":"h_2_0_3_0","opponent_hand":"h_0_0_3_0","win":true,"tie":false,"bet":2,"earnings":10,"expected_value":0.90625,"expected_earnings":9.0625,"bet_rt":978,"block":1,"trial_type":"card_game","trial_index":24,"time_elapsed":161169,"internal_node_id":"0.0-24.0"},{"type":"card_game","game_type":"straight_flush","losers":false,"see_result":true,"my_hand":"h_3_0_1_0","opponent_hand":"h_0_0_2_1","win":true,"tie":false,"bet":1,"earnings":5,"expected_value":-0.09375,"expected_earnings":-0.46875,"bet_rt":1261,"block":1,"trial_type":"card_game","trial_index":25,"time_elapsed":163971,"internal_node_id":"0.0-25.0"},{"type":"card_game","game_type":"straight_flush","losers":false,"see_result":true,"my_hand":"h_3_1_0_0","opponent_hand":"h_3_0_1_1","win":false,"tie":false,"bet":1,"earnings":-5,"expected_value":-0.21875,"expected_earnings":-1.09375,"bet_rt":843,"block":1,"trial_type":"card_game","trial_index":26,"time_elapsed":166345,"internal_node_id":"0.0-26.0"},{"type":"card_game","game_type":"straight_flush","losers":false,"see_result":true,"my_hand":"h_2_1_2_1","opponent_hand":"h_2_1_2_0","win":true,"tie":false,"bet":0,"earnings":0,"expected_value":-0.390625,"expected_earnings":0,"bet_rt":1280,"block":1,"trial_type":"card_game","trial_index":27,"time_elapsed":169160,"internal_node_id":"0.0-27.0"},{"type":"card_game","game_type":"straight_flush","losers":false,"see_result":true,"my_hand":"h_3_0_0_0","opponent_hand":"h_1_1_2_0","win":false,"tie":false,"bet":1,"earnings":-5,"expected_value":-0.34375,"expected_earnings":-1.71875,"bet_rt":1215,"block":1,"trial_type":"card_game","trial_index":28,"time_elapsed":171917,"internal_node_id":"0.0-28.0"},{"type":"card_game","game_type":"straight_flush","losers":false,"see_result":true,"my_hand":"h_0_0_0_0","opponent_hand":"h_3_1_3_1","win":false,"tie":false,"bet":0,"earnings":0,"expected_value":-0.984375,"expected_earnings":0,"bet_rt":1044,"block":1,"trial_type":"card_game","trial_index":29,"time_elapsed":174503,"internal_node_id":"0.0-29.0"},{"type":"card_game","game_type":"straight_flush","losers":false,"see_result":true,"my_hand":"h_1_0_3_0","opponent_hand":"h_1_0_3_0","win":false,"tie":true,"bet":1,"earnings":0,"expected_value":-0.09375,"expected_earnings":-0.46875,"bet_rt":1175,"block":1,"trial_type":"card_game","trial_index":30,"time_elapsed":177221,"internal_node_id":"0.0-30.0"},{"type":"card_game","game_type":"straight_flush","losers":false,"see_result":true,"my_hand":"h_1_1_2_1","opponent_hand":"h_2_0_0_1","win":true,"tie":false,"bet":2,"earnings":10,"expected_value":0.84375,"expected_earnings":8.4375,"bet_rt":1016,"block":1,"trial_type":"card_game","trial_index":31,"time_elapsed":179776,"internal_node_id":"0.0-31.0"},{"type":"card_game","game_type":"straight_flush","losers":false,"see_result":true,"my_hand":"h_0_0_1_0","opponent_hand":"h_3_0_0_1","win":true,"tie":false,"bet":2,"earnings":10,"expected_value":0.65625,"expected_earnings":6.5625,"bet_rt":815,"block":1,"trial_type":"card_game","trial_index":32,"time_elapsed":182128,"internal_node_id":"0.0-32.0"},{"type":"card_game","game_type":"straight_flush","losers":false,"see_result":true,"my_hand":"h_2_1_1_0","opponent_hand":"h_2_0_1_1","win":true,"tie":false,"bet":2,"earnings":10,"expected_value":0.46875,"expected_earnings":4.6875,"bet_rt":566,"block":1,"trial_type":"card_game","trial_index":33,"time_elapsed":184232,"internal_node_id":"0.0-33.0"},{"type":"card_game","game_type":"straight_flush","losers":false,"see_result":true,"my_hand":"h_2_1_0_0","opponent_hand":"h_2_0_1_0","win":false,"tie":false,"bet":1,"earnings":-5,"expected_value":-0.59375,"expected_earnings":-2.96875,"bet_rt":2495,"block":1,"trial_type":"card_game","trial_index":34,"time_elapsed":188266,"internal_node_id":"0.0-34.0"},{"type":"card_game","game_type":"straight_flush","losers":false,"see_result":true,"my_hand":"h_0_1_1_0","opponent_hand":"h_0_1_2_1","win":true,"tie":false,"bet":2,"earnings":10,"expected_value":0.28125,"expected_earnings":2.8125,"bet_rt":852,"block":1,"trial_type":"card_game","trial_index":35,"time_elapsed":190657,"internal_node_id":"0.0-35.0"},{"type":"card_game","game_type":"straight_flush","losers":false,"see_result":true,"my_hand":"h_0_1_1_0","opponent_hand":"h_3_1_0_0","win":true,"tie":false,"bet":2,"earnings":10,"expected_value":0.28125,"expected_earnings":2.8125,"bet_rt":566,"block":1,"trial_type":"card_game","trial_index":36,"time_elapsed":192765,"internal_node_id":"0.0-36.0"},{"type":"card_game","game_type":"straight_flush","losers":false,"see_result":true,"my_hand":"h_3_1_2_1","opponent_hand":"h_2_0_3_1","win":true,"tie":false,"bet":2,"earnings":10,"expected_value":0.96875,"expected_earnings":9.6875,"bet_rt":521,"block":1,"trial_type":"card_game","trial_index":37,"time_elapsed":194831,"internal_node_id":"0.0-37.0"},{"type":"card_game","game_type":"straight_flush","losers":false,"see_result":true,"my_hand":"h_2_1_3_0","opponent_hand":"h_3_1_3_0","win":true,"tie":false,"bet":2,"earnings":10,"expected_value":0.53125,"expected_earnings":5.3125,"bet_rt":439,"block":1,"trial_type":"card_game","trial_index":38,"time_elapsed":196815,"internal_node_id":"0.0-38.0"},{"rt":5748.885000124574,"stimulus":"<p>You earned a performance bonus of 105 cents on this set of trials, plus $1.50 for making it to this phase.</p><p>Press any key to continue.</p>","key_press":68,"trial_type":"html-keyboard-response","trial_index":39,"time_elapsed":202564,"internal_node_id":"0.0-39.0"},{"rt":1055.0650004297495,"stimulus":"<p>To test how well you understand the game, we'll now give you a series of hands where you won't see your results after you bet. You will just see your earnings at the end of the set of hands.</p><p>Press any key to continue.</p>","key_press":91,"trial_type":"html-keyboard-response","trial_index":40,"time_elapsed":203620,"internal_node_id":"0.0-40.0"},{"type":"card_game","game_type":"straight_flush","losers":false,"see_result":false,"my_hand":"h_2_0_1_1","opponent_hand":"h_2_1_3_1","win":false,"tie":false,"bet":2,"earnings":-10,"expected_value":0.40625,"expected_earnings":4.0625,"bet_rt":4013,"block":2,"trial_type":"card_game","trial_index":41,"time_elapsed":208133,"internal_node_id":"0.0-41.0"},{"type":"card_game","game_type":"straight_flush","losers":false,"see_result":false,"my_hand":"h_0_0_1_0","opponent_hand":"h_3_0_3_1","win":true,"tie":false,"bet":2,"earnings":10,"expected_value":0.65625,"expected_earnings":6.5625,"bet_rt":3024,"block":2,"trial_type":"card_game","trial_index":42,"time_elapsed":211660,"internal_node_id":"0.0-42.0"},{"type":"card_game","game_type":"straight_flush","losers":false,"see_result":false,"my_hand":"h_2_0_0_1","opponent_hand":"h_1_1_3_1","win":false,"tie":false,"bet":0,"earnings":0,"expected_value":-0.65625,"expected_earnings":0,"bet_rt":2540,"block":2,"trial_type":"card_game","trial_index":43,"time_elapsed":214701,"internal_node_id":"0.0-43.0"},{"type":"card_game","game_type":"straight_flush","losers":false,"see_result":false,"my_hand":"h_3_0_0_0","opponent_hand":"h_0_1_2_0","win":true,"tie":false,"bet":1,"earnings":5,"expected_value":-0.34375,"expected_earnings":-1.71875,"bet_rt":2141,"block":2,"trial_type":"card_game","trial_index":44,"time_elapsed":217344,"internal_node_id":"0.0-44.0"},{"type":"card_game","game_type":"straight_flush","losers":false,"see_result":false,"my_hand":"h_2_0_2_1","opponent_hand":"h_0_0_3_0","win":false,"tie":false,"bet":0,"earnings":0,"expected_value":-0.4375,"expected_earnings":0,"bet_rt":1060,"block":2,"trial_type":"card_game","trial_index":45,"time_elapsed":218905,"internal_node_id":"0.0-45.0"},{"type":"card_game","game_type":"straight_flush","losers":false,"see_result":false,"my_hand":"h_3_0_1_0","opponent_hand":"h_0_0_2_1","win":true,"tie":false,"bet":1,"earnings":5,"expected_value":-0.09375,"expected_earnings":-0.46875,"bet_rt":1318,"block":2,"trial_type":"card_game","trial_index":46,"time_elapsed":220724,"internal_node_id":"0.0-46.0"},{"type":"card_game","game_type":"straight_flush","losers":false,"see_result":false,"my_hand":"h_0_1_1_0","opponent_hand":"h_1_1_3_1","win":true,"tie":false,"bet":2,"earnings":10,"expected_value":0.28125,"expected_earnings":2.8125,"bet_rt":1221,"block":2,"trial_type":"card_game","trial_index":47,"time_elapsed":222447,"internal_node_id":"0.0-47.0"},{"type":"card_game","game_type":"straight_flush","losers":false,"see_result":false,"my_hand":"h_3_0_1_0","opponent_hand":"h_3_1_2_1","win":false,"tie":false,"bet":1,"earnings":-5,"expected_value":-0.09375,"expected_earnings":-0.46875,"bet_rt":888,"block":2,"trial_type":"card_game","trial_index":48,"time_elapsed":223837,"internal_node_id":"0.0-48.0"},{"type":"card_game","game_type":"straight_flush","losers":false,"see_result":false,"my_hand":"h_1_1_1_1","opponent_hand":"h_1_1_2_1","win":false,"tie":false,"bet":0,"earnings":0,"expected_value":-0.765625,"expected_earnings":0,"bet_rt":915,"block":2,"trial_type":"card_game","trial_index":49,"time_elapsed":225253,"internal_node_id":"0.0-49.0"},{"type":"card_game","game_type":"straight_flush","losers":false,"see_result":false,"my_hand":"h_3_1_2_1","opponent_hand":"h_2_0_2_0","win":true,"tie":false,"bet":2,"earnings":10,"expected_value":0.96875,"expected_earnings":9.6875,"bet_rt":963,"block":2,"trial_type":"card_game","trial_index":50,"time_elapsed":226717,"internal_node_id":"0.0-50.0"},{"type":"card_game","game_type":"straight_flush","losers":false,"see_result":false,"my_hand":"h_0_0_0_1","opponent_hand":"h_1_0_3_0","win":false,"tie":false,"bet":0,"earnings":0,"expected_value":-0.9375,"expected_earnings":0,"bet_rt":1032,"block":2,"trial_type":"card_game","trial_index":51,"time_elapsed":228250,"internal_node_id":"0.0-51.0"},{"type":"card_game","game_type":"straight_flush","losers":false,"see_result":false,"my_hand":"h_1_0_1_1","opponent_hand":"h_2_1_2_1","win":false,"tie":false,"bet":0,"earnings":0,"expected_value":-0.8125,"expected_earnings":0,"bet_rt":2637,"block":2,"trial_type":"card_game","trial_index":52,"time_elapsed":231390,"internal_node_id":"0.0-52.0"},{"type":"card_game","game_type":"straight_flush","losers":false,"see_result":false,"my_hand":"h_3_1_2_1","opponent_hand":"h_2_0_1_0","win":true,"tie":false,"bet":2,"earnings":10,"expected_value":0.96875,"expected_earnings":9.6875,"bet_rt":977,"block":2,"trial_type":"card_game","trial_index":53,"time_elapsed":232869,"internal_node_id":"0.0-53.0"},{"type":"card_game","game_type":"straight_flush","losers":false,"see_result":false,"my_hand":"h_3_1_1_1","opponent_hand":"h_1_1_0_1","win":false,"tie":false,"bet":1,"earnings":-5,"expected_value":0.09375,"expected_earnings":0.46875,"bet_rt":1058,"block":2,"trial_type":"card_game","trial_index":54,"time_elapsed":234428,"internal_node_id":"0.0-54.0"},{"type":"card_game","game_type":"straight_flush","losers":false,"see_result":false,"my_hand":"h_0_0_2_0","opponent_hand":"h_2_0_1_1","win":false,"tie":false,"bet":1,"earnings":-5,"expected_value":-0.71875,"expected_earnings":-3.59375,"bet_rt":1095,"block":2,"trial_type":"card_game","trial_index":55,"time_elapsed":236025,"internal_node_id":"0.0-55.0"},{"type":"card_game","game_type":"straight_flush","losers":false,"see_result":false,"my_hand":"h_1_0_0_0","opponent_hand":"h_3_0_2_0","win":false,"tie":false,"bet":2,"earnings":-10,"expected_value":0.65625,"expected_earnings":6.5625,"bet_rt":1061,"block":2,"trial_type":"card_game","trial_index":56,"time_elapsed":237589,"internal_node_id":"0.0-56.0"},{"type":"card_game","game_type":"straight_flush","losers":false,"see_result":false,"my_hand":"h_2_0_1_0","opponent_hand":"h_1_1_0_0","win":true,"tie":false,"bet":2,"earnings":10,"expected_value":0.78125,"expected_earnings":7.8125,"bet_rt":842,"block":2,"trial_type":"card_game","trial_index":57,"time_elapsed":238933,"internal_node_id":"0.0-57.0"},{"type":"card_game","game_type":"straight_flush","losers":false,"see_result":false,"my_hand":"h_3_0_0_0","opponent_hand":"h_0_1_2_0","win":true,"tie":false,"bet":1,"earnings":5,"expected_value":-0.34375,"expected_earnings":-1.71875,"bet_rt":1461,"block":2,"trial_type":"card_game","trial_index":58,"time_elapsed":240895,"internal_node_id":"0.0-58.0"},{"type":"card_game","game_type":"straight_flush","losers":false,"see_result":false,"my_hand":"h_1_1_3_1","opponent_hand":"h_1_1_0_1","win":false,"tie":false,"bet":1,"earnings":-5,"expected_value":0.09375,"expected_earnings":0.46875,"bet_rt":912,"block":2,"trial_type":"card_game","trial_index":59,"time_elapsed":242309,"internal_node_id":"0.0-59.0"},{"type":"card_game","game_type":"straight_flush","losers":false,"see_result":false,"my_hand":"h_2_0_0_0","opponent_hand":"h_3_0_2_1","win":false,"tie":false,"bet":1,"earnings":-5,"expected_value":-0.71875,"expected_earnings":-3.59375,"bet_rt":969,"block":2,"trial_type":"card_game","trial_index":60,"time_elapsed":243780,"internal_node_id":"0.0-60.0"},{"type":"card_game","game_type":"straight_flush","losers":false,"see_result":false,"my_hand":"h_3_1_1_0","opponent_hand":"h_0_1_0_0","win":true,"tie":false,"bet":1,"earnings":5,"expected_value":0.03125,"expected_earnings":0.15625,"bet_rt":1210,"block":2,"trial_type":"card_game","trial_index":61,"time_elapsed":245492,"internal_node_id":"0.0-61.0"},{"type":"card_game","game_type":"straight_flush","losers":false,"see_result":false,"my_hand":"h_1_0_0_0","opponent_hand":"h_2_1_3_0","win":true,"tie":false,"bet":2,"earnings":10,"expected_value":0.65625,"expected_earnings":6.5625,"bet_rt":1068,"block":2,"trial_type":"card_game","trial_index":62,"time_elapsed":247062,"internal_node_id":"0.0-62.0"},{"type":"card_game","game_type":"straight_flush","losers":false,"see_result":false,"my_hand":"h_1_0_2_1","opponent_hand":"h_1_0_3_1","win":true,"tie":false,"bet":2,"earnings":10,"expected_value":0.46875,"expected_earnings":4.6875,"bet_rt":897,"block":2,"trial_type":"card_game","trial_index":63,"time_elapsed":248461,"internal_node_id":"0.0-63.0"},{"type":"card_game","game_type":"straight_flush","losers":false,"see_result":false,"my_hand":"h_3_1_0_1","opponent_hand":"h_3_0_3_0","win":false,"tie":false,"bet":1,"earnings":-5,"expected_value":-0.15625,"expected_earnings":-0.78125,"bet_rt":1531,"block":2,"trial_type":"card_game","trial_index":64,"time_elapsed":250492,"internal_node_id":"0.0-64.0"},{"rt":8201.224999502301,"stimulus":"<p>You earned a performance bonus of 50 cents on this set of trials.</p><p>You have earned a performance bonus of 155 cents over the experiment so far, plus $1.50 for making it to this phase.</p><p>Press any key to continue.</p>","key_press":68,"trial_type":"html-keyboard-response","trial_index":65,"time_elapsed":258700,"internal_node_id":"0.0-65.0"},{"rt":2430.984999984503,"stimulus":"<p><font color='red'><b>Now, we want you to try to lose the game! For the remainder of the experiment, if you bet and lose, you'll gain the amount you bet, and if you bet and win, you'll lose the amount you bet.</b></font></p><p>As before, you won't win or lose anything if you tie your opponent, or if you don't bet.</p><p>Press any key to continue.</p>","key_press":122,"trial_type":"html-keyboard-response","trial_index":66,"time_elapsed":261132,"internal_node_id":"0.0-66.0"},{"rt":5318.3000003919005,"responses":"{\"Q0\":\"Bet and my hand loses.\"}","question_order":"[0]","response_trial_type":"attention_check","trial_type":"survey-multi-choice","trial_index":67,"time_elapsed":266452,"internal_node_id":"0.0-67.0"},{"rt":2567.514999769628,"stimulus":"<p>Great, now you get to play a few hands!</p><p>As before, you won't see your results after you bet. You will just see your earnings at the end of the set of hands.</p><p>Press any key to continue.</p>","key_press":83,"trial_type":"html-keyboard-response","trial_index":68,"time_elapsed":269020,"internal_node_id":"0.0-68.0"},{"type":"card_game","game_type":"straight_flush","losers":true,"see_result":false,"my_hand":"h_3_0_1_1","opponent_hand":"h_0_1_2_0","win":false,"tie":false,"bet":0,"earnings":0,"expected_value":0.03125,"expected_earnings":0,"bet_rt":5066,"block":3,"trial_type":"card_game","trial_index":69,"time_elapsed":274587,"internal_node_id":"0.0-69.0"},{"type":"card_game","game_type":"straight_flush","losers":true,"see_result":false,"my_hand":"h_0_1_3_1","opponent_hand":"h_0_1_3_0","win":false,"tie":false,"bet":1,"earnings":-5,"expected_value":0.15625,"expected_earnings":0.78125,"bet_rt":3305,"block":3,"trial_type":"card_game","trial_index":70,"time_elapsed":278393,"internal_node_id":"0.0-70.0"},{"type":"card_game","game_type":"straight_flush","losers":true,"see_result":false,"my_hand":"h_2_0_1_0","opponent_hand":"h_0_1_2_1","win":false,"tie":false,"bet":0,"earnings":0,"expected_value":-0.78125,"expected_earnings":0,"bet_rt":1655,"block":3,"trial_type":"card_game","trial_index":71,"time_elapsed":280550,"internal_node_id":"0.0-71.0"},{"type":"card_game","game_type":"straight_flush","losers":true,"see_result":false,"my_hand":"h_0_0_0_0","opponent_hand":"h_3_0_1_0","win":true,"tie":false,"bet":2,"earnings":10,"expected_value":0.984375,"expected_earnings":9.84375,"bet_rt":1256,"block":3,"trial_type":"card_game","trial_index":72,"time_elapsed":282308,"internal_node_id":"0.0-72.0"},{"type":"card_game","game_type":"straight_flush","losers":true,"see_result":false,"my_hand":"h_2_1_0_1","opponent_hand":"h_0_1_2_0","win":false,"tie":false,"bet":0,"earnings":0,"expected_value":0.53125,"expected_earnings":0,"bet_rt":2131,"block":3,"trial_type":"card_game","trial_index":73,"time_elapsed":284940,"internal_node_id":"0.0-73.0"},{"type":"card_game","game_type":"straight_flush","losers":true,"see_result":false,"my_hand":"h_2_1_2_1","opponent_hand":"h_0_0_1_0","win":true,"tie":false,"bet":1,"earnings":5,"expected_value":0.390625,"expected_earnings":1.953125,"bet_rt":1828,"block":3,"trial_type":"card_game","trial_index":74,"time_elapsed":287269,"internal_node_id":"0.0-74.0"},{"type":"card_game","game_type":"straight_flush","losers":true,"see_result":false,"my_hand":"h_0_1_1_1","opponent_hand":"h_3_0_3_0","win":false,"tie":false,"bet":0,"earnings":0,"expected_value":-0.71875,"expected_earnings":0,"bet_rt":3586,"block":3,"trial_type":"card_game","trial_index":75,"time_elapsed":291356,"internal_node_id":"0.0-75.0"},{"type":"card_game","game_type":"straight_flush","losers":true,"see_result":false,"my_hand":"h_1_1_2_1","opponent_hand":"h_3_1_2_0","win":false,"tie":false,"bet":0,"earnings":0,"expected_value":-0.84375,"expected_earnings":0,"bet_rt":723,"block":3,"trial_type":"card_game","trial_index":76,"time_elapsed":292579,"internal_node_id":"0.0-76.0"},{"type":"card_game","game_type":"straight_flush","losers":true,"see_result":false,"my_hand":"h_0_1_0_0","opponent_hand":"h_0_1_2_1","win":true,"tie":false,"bet":2,"earnings":10,"expected_value":0.9375,"expected_earnings":9.375,"bet_rt":1060,"block":3,"trial_type":"card_game","trial_index":77,"time_elapsed":294142,"internal_node_id":"0.0-77.0"},{"type":"card_game","game_type":"straight_flush","losers":true,"see_result":false,"my_hand":"h_1_0_1_1","opponent_hand":"h_3_0_0_0","win":true,"tie":false,"bet":2,"earnings":10,"expected_value":0.8125,"expected_earnings":8.125,"bet_rt":1008,"block":3,"trial_type":"card_game","trial_index":78,"time_elapsed":295651,"internal_node_id":"0.0-78.0"},{"type":"card_game","game_type":"straight_flush","losers":true,"see_result":false,"my_hand":"h_3_0_3_0","opponent_hand":"h_3_1_3_1","win":true,"tie":false,"bet":1,"earnings":5,"expected_value":-0.140625,"expected_earnings":-0.703125,"bet_rt":1994,"block":3,"trial_type":"card_game","trial_index":79,"time_elapsed":298146,"internal_node_id":"0.0-79.0"},{"type":"card_game","game_type":"straight_flush","losers":true,"see_result":false,"my_hand":"h_2_0_1_1","opponent_hand":"h_0_0_2_0","win":false,"tie":false,"bet":0,"earnings":0,"expected_value":-0.40625,"expected_earnings":0,"bet_rt":1124,"block":3,"trial_type":"card_game","trial_index":80,"time_elapsed":299773,"internal_node_id":"0.0-80.0"},{"type":"card_game","game_type":"straight_flush","losers":true,"see_result":false,"my_hand":"h_0_1_3_1","opponent_hand":"h_3_0_2_0","win":true,"tie":false,"bet":1,"earnings":5,"expected_value":0.15625,"expected_earnings":0.78125,"bet_rt":1690,"block":3,"trial_type":"card_game","trial_index":81,"time_elapsed":301964,"internal_node_id":"0.0-81.0"},{"type":"card_game","game_type":"straight_flush","losers":true,"see_result":false,"my_hand":"h_0_0_1_1","opponent_hand":"h_1_0_0_1","win":false,"tie":false,"bet":0,"earnings":0,"expected_value":-0.34375,"expected_earnings":0,"bet_rt":1026,"block":3,"trial_type":"card_game","trial_index":82,"time_elapsed":303491,"internal_node_id":"0.0-82.0"},{"type":"card_game","game_type":"straight_flush","losers":true,"see_result":false,"my_hand":"h_2_1_0_0","opponent_hand":"h_0_0_3_0","win":true,"tie":false,"bet":0,"earnings":0,"expected_value":0.59375,"expected_earnings":0,"bet_rt":1083,"block":3,"trial_type":"card_game","trial_index":83,"time_elapsed":305077,"internal_node_id":"0.0-83.0"},{"type":"card_game","game_type":"straight_flush","losers":true,"see_result":false,"my_hand":"h_3_0_3_0","opponent_hand":"h_3_1_0_1","win":false,"tie":false,"bet":2,"earnings":-10,"expected_value":-0.140625,"expected_earnings":-1.40625,"bet_rt":994,"block":3,"trial_type":"card_game","trial_index":84,"time_elapsed":306571,"internal_node_id":"0.0-84.0"},{"type":"card_game","game_type":"straight_flush","losers":true,"see_result":false,"my_hand":"h_1_0_2_1","opponent_hand":"h_2_0_3_1","win":true,"tie":false,"bet":0,"earnings":0,"expected_value":-0.46875,"expected_earnings":0,"bet_rt":1222,"block":3,"trial_type":"card_game","trial_index":85,"time_elapsed":308294,"internal_node_id":"0.0-85.0"},{"type":"card_game","game_type":"straight_flush","losers":true,"see_result":false,"my_hand":"h_0_1_1_1","opponent_hand":"h_3_1_1_1","win":false,"tie":false,"bet":0,"earnings":0,"expected_value":-0.71875,"expected_earnings":0,"bet_rt":991,"block":3,"trial_type":"card_game","trial_index":86,"time_elapsed":309787,"internal_node_id":"0.0-86.0"},{"type":"card_game","game_type":"straight_flush","losers":true,"see_result":false,"my_hand":"h_2_0_0_0","opponent_hand":"h_1_0_3_1","win":true,"tie":false,"bet":1,"earnings":5,"expected_value":0.71875,"expected_earnings":3.59375,"bet_rt":1060,"block":3,"trial_type":"card_game","trial_index":87,"time_elapsed":311348,"internal_node_id":"0.0-87.0"},{"type":"card_game","game_type":"straight_flush","losers":true,"see_result":false,"my_hand":"h_1_0_2_0","opponent_hand":"h_2_0_2_1","win":false,"tie":false,"bet":0,"earnings":0,"expected_value":-0.78125,"expected_earnings":0,"bet_rt":1851,"block":3,"trial_type":"card_game","trial_index":88,"time_elapsed":313701,"internal_node_id":"0.0-88.0"},{"type":"card_game","game_type":"straight_flush","losers":true,"see_result":false,"my_hand":"h_0_1_3_0","opponent_hand":"h_1_0_0_1","win":true,"tie":false,"bet":2,"earnings":10,"expected_value":0.28125,"expected_earnings":2.8125,"bet_rt":1881,"block":3,"trial_type":"card_game","trial_index":89,"time_elapsed":316085,"internal_node_id":"0.0-89.0"},{"type":"card_game","game_type":"straight_flush","losers":true,"see_result":false,"my_hand":"h_3_1_3_1","opponent_hand":"h_3_1_1_1","win":false,"tie":false,"bet":2,"earnings":-10,"expected_value":-0.234375,"expected_earnings":-2.34375,"bet_rt":1299,"block":3,"trial_type":"card_game","trial_index":90,"time_elapsed":317886,"internal_node_id":"0.0-90.0"},{"type":"card_game","game_type":"straight_flush","losers":true,"see_result":false,"my_hand":"h_3_0_0_0","opponent_hand":"h_3_0_1_1","win":true,"tie":false,"bet":2,"earnings":10,"expected_value":0.34375,"expected_earnings":3.4375,"bet_rt":1904,"block":3,"trial_type":"card_game","trial_index":91,"time_elapsed":320292,"internal_node_id":"0.0-91.0"},{"type":"card_game","game_type":"straight_flush","losers":true,"see_result":false,"my_hand":"h_0_0_1_0","opponent_hand":"h_0_0_2_1","win":false,"tie":false,"bet":0,"earnings":0,"expected_value":-0.65625,"expected_earnings":0,"bet_rt":1323,"block":3,"trial_type":"card_game","trial_index":92,"time_elapsed":322117,"internal_node_id":"0.0-92.0"},{"rt":2102.669999934733,"stimulus":"<p>You earned a performance bonus of 40 cents on this set of trials.</p><p>You have earned a performance bonus of 195 cents over the experiment so far, plus $1.50 for making it to this phase.</p><p>Press any key to continue.</p>","key_press":32,"trial_type":"html-keyboard-response","trial_index":93,"time_elapsed":324220,"internal_node_id":"0.0-93.0"},{"rt":887.1049992740154,"stimulus":"<p>Great, we just have a few questions to ask you and then you'll be finished!</p><p>Press any key to continue.</p>","key_press":32,"trial_type":"html-keyboard-response","trial_index":94,"time_elapsed":325108,"internal_node_id":"0.0-94.0"},{"rt":8279.635000042617,"responses":"{\"Q0\":4,\"Q1\":3,\"Q2\":2}","question_order":"[0,1,2]","response_trial_type":"debrief","trial_type":"survey-likert","trial_index":95,"time_elapsed":333389,"internal_node_id":"0.0-95.0"},{"rt":8110.129999928176,"responses":"{\"Q0\":\"25-35\",\"Q1\":\"Bachelor's degree\",\"Q2\":\"Male\",\"Q3\":\"White\"}","question_order":"[0,1,2,3]","response_trial_type":"demographics","trial_type":"survey-multi-choice","trial_index":96,"time_elapsed":341500,"internal_node_id":"0.0-96.0"},{"rt":1225.475000217557,"responses":"{\"Q0\":\"\"}","response_trial_type":"comments","trial_type":"survey-text","trial_index":97,"time_elapsed":342732,"internal_node_id":"0.0-97.0"}]