[{"view_history":"[{\"page_index\":0,\"viewing_time\":19443.77500002156},{\"page_index\":1,\"viewing_time\":17213.45999999903},{\"page_index\":2,\"viewing_time\":36849.68499999377},{\"page_index\":3,\"viewing_time\":31586.110000003828},{\"page_index\":4,\"viewing_time\":24174.36499998439},{\"page_index\":5,\"viewing_time\":40075.5899999931},{\"page_index\":6,\"viewing_time\":16925.93000002671}]","rt":186269.78000000236,"trial_type":"instructions","trial_index":0,"time_elapsed":186275,"internal_node_id":"0.0-0.0"},{"type":"hand_comparison","hand_win":"h_1_0_2_1","hand_lose":"h_3_0_0_0","explanation":"Adjacent cards beat non-adjacent.","hand_indices":[0,1],"hand_choice":0,"correct":true,"rt":35861,"trial_type":"hand_comparison","trial_index":1,"time_elapsed":224141,"internal_node_id":"0.0-1.0"},{"type":"hand_comparison","hand_win":"h_0_0_1_0","hand_lose":"h_3_0_2_1","explanation":"Same-suit adjacent beats different suit.","hand_indices":[1,0],"hand_choice":1,"correct":true,"rt":8590,"trial_type":"hand_comparison","trial_index":2,"time_elapsed":234732,"internal_node_id":"0.0-2.0"},{"type":"hand_comparison","hand_win":"h_3_0_0_1","hand_lose":"h_2_0_2_1","explanation":"Highest card breaks ties.","hand_indices":[0,1],"hand_choice":0,"correct":true,"rt":12463,"trial_type":"hand_comparison","trial_index":3,"time_elapsed":249196,"internal_node_id":"0.0-3.0"},{"type":"hand_comparison","hand_win":"h_3_1_2_1","hand_lose":"h_2_0_3_0","explanation":"Black cards beat red cards if the numbers are tied.","hand_indices":[1,0],"hand_choice":1,"correct":true,"rt":28049,"trial_type":"hand_comparison","trial_index":4,"time_elapsed":279249,"internal_node_id":"0.0-4.0"},{"rt":27951.614999998128,"stimulus":"<p><b>Congratulations, you passed the test, and will get to proceed to phase 2!</b></p><p>You have earned a $1.50 bonus, and will be awarded a performance bonus based on your bets in the next phase.</p><p>Press any key to continue.</p>","key_press":76,"trial_type":"html-keyboard-response","trial_index":5,"time_elapsed":307205,"internal_node_id":"0.0-5.0"},{"rt":5208.279999991646,"stimulus":"<p>Now you get to play a few hands. After you bet, we'll show you your opponent's hand and how much you won (or lost), and at the end of these hands we'll tell you your total earnings.</p><p>Press any key to continue.</p>","key_press":75,"trial_type":"html-keyboard-response","trial_index":6,"time_elapsed":312415,"internal_node_id":"0.0-6.0"},{"type":"card_game","game_type":"straight_flush","losers":false,"see_result":true,"my_hand":"h_3_1_0_1","opponent_hand":"h_3_0_2_1","win":false,"tie":false,"bet":1,"earnings":-5,"expected_value":-0.15625,"expected_earnings":-0.78125,"bet_rt":10171,"block":1,"trial_type":"card_game","trial_index":7,"time_elapsed":324212,"internal_node_id":"0.0-7.0"},{"type":"card_game","game_type":"straight_flush","losers":false,"see_result":true,"my_hand":"h_2_0_2_0","opponent_hand":"h_0_0_3_1","win":false,"tie":false,"bet":2,"earnings":-10,"expected_value":-0.484375,"expected_earnings":-4.84375,"bet_rt":3050,"block":1,"trial_type":"card_game","trial_index":8,"time_elapsed":328839,"internal_node_id":"0.0-8.0"},{"type":"card_game","game_type":"straight_flush","losers":false,"see_result":true,"my_hand":"h_1_0_1_0","opponent_hand":"h_0_1_0_0","win":true,"tie":false,"bet":0,"earnings":0,"expected_value":-0.859375,"expected_earnings":0,"bet_rt":4605,"block":1,"trial_type":"card_game","trial_index":9,"time_elapsed":335006,"internal_node_id":"0.0-9.0"},{"type":"card_game","game_type":"straight_flush","losers":false,"see_result":true,"my_hand":"h_2_1_0_0","opponent_hand":"h_1_1_2_1","win":false,"tie":false,"bet":0,"earnings":0,"expected_value":-0.59375,"expected_earnings":0,"bet_rt":8519,"block":1,"trial_type":"card_game","trial_index":10,"time_elapsed":345093,"internal_node_id":"0.0-10.0"},{"type":"card_game","game_type":"straight_flush","losers":false,"see_result":true,"my_hand":"h_0_1_0_1","opponent_hand":"h_1_1_3_1","win":false,"tie":false,"bet":0,"earnings":0,"expected_value":-0.890625,"expected_earnings":0,"bet_rt":8454,"block":1,"trial_type":"card_game","trial_index":11,"time_elapsed":355111,"internal_node_id":"0.0-11.0"},{"type":"card_game","game_type":"straight_flush","losers":false,"see_result":true,"my_hand":"h_2_1_3_1","opponent_hand":"h_0_0_2_1","win":true,"tie":false,"bet":2,"earnings":10,"expected_value":0.96875,"expected_earnings":9.6875,"bet_rt":3666,"block":1,"trial_type":"card_game","trial_index":12,"time_elapsed":360343,"internal_node_id":"0.0-12.0"},{"type":"card_game","game_type":"straight_flush","losers":false,"see_result":true,"my_hand":"h_1_1_1_0","opponent_hand":"h_2_0_1_0","win":false,"tie":false,"bet":0,"earnings":0,"expected_value":-0.8125,"expected_earnings":0,"bet_rt":3843,"block":1,"trial_type":"card_game","trial_index":13,"time_elapsed":365781,"internal_node_id":"0.0-13.0"},{"type":"card_game","game_type":"straight_flush","losers":false,"see_result":true,"my_hand":"h_2_0_0_1","opponent_hand":"h_1_1_3_0","win":false,"tie":false,"bet":0,"earnings":0,"expected_value":-0.65625,"expected_earnings":0,"bet_rt":7615,"block":1,"trial_type":"card_game","trial_index":14,"time_elapsed":374955,"internal_node_id":"0.0-14.0"},{"type":"card_game","game_type":"straight_flush","losers":false,"see_result":true,"my_hand":"h_2_1_1_0","opponent_hand":"h_1_0_0_1","win":true,"tie":false,"bet":1,"earnings":5,"expected_value":0.46875,"expected_earnings":2.34375,"bet_rt":4575,"block":1,"trial_type":"card_game","trial_index":15,"time_elapsed":381104,"internal_node_id":"0.0-15.0"},{"type":"card_game","game_type":"straight_flush","losers":false,"see_result":true,"my_hand":"h_2_0_2_0","opponent_hand":"h_2_0_1_1","win":false,"tie":false,"bet":0,"earnings":0,"expected_value":-0.484375,"expected_earnings":0,"bet_rt":8166,"block":1,"trial_type":"card_game","trial_index":16,"time_elapsed":390835,"internal_node_id":"0.0-16.0"},{"type":"card_game","game_type":"straight_flush","losers":false,"see_result":true,"my_hand":"h_1_1_0_1","opponent_hand":"h_1_0_1_0","win":true,"tie":false,"bet":1,"earnings":5,"expected_value":0.71875,"expected_earnings":3.59375,"bet_rt":2705,"block":1,"trial_type":"card_game","trial_index":17,"time_elapsed":395110,"internal_node_id":"0.0-17.0"},{"type":"card_game","game_type":"straight_flush","losers":false,"see_result":true,"my_hand":"h_1_0_3_1","opponent_hand":"h_0_1_3_1","win":true,"tie":false,"bet":0,"earnings":0,"expected_value":0.03125,"expected_earnings":0,"bet_rt":5330,"block":1,"trial_type":"card_game","trial_index":18,"time_elapsed":402016,"internal_node_id":"0.0-18.0"},{"type":"card_game","game_type":"straight_flush","losers":false,"see_result":true,"my_hand":"h_3_0_1_0","opponent_hand":"h_1_1_1_1","win":true,"tie":false,"bet":0,"earnings":0,"expected_value":-0.09375,"expected_earnings":0,"bet_rt":2375,"block":1,"trial_type":"card_game","trial_index":19,"time_elapsed":405989,"internal_node_id":"0.0-19.0"},{"type":"card_game","game_type":"straight_flush","losers":false,"see_result":true,"my_hand":"h_3_0_1_1","opponent_hand":"h_1_0_0_0","win":false,"tie":false,"bet":0,"earnings":0,"expected_value":-0.03125,"expected_earnings":0,"bet_rt":3570,"block":1,"trial_type":"card_game","trial_index":20,"time_elapsed":411115,"internal_node_id":"0.0-20.0"},{"type":"card_game","game_type":"straight_flush","losers":false,"see_result":true,"my_hand":"h_2_1_3_0","opponent_hand":"h_3_1_0_1","win":true,"tie":false,"bet":1,"earnings":5,"expected_value":0.53125,"expected_earnings":2.65625,"bet_rt":1777,"block":1,"trial_type":"card_game","trial_index":21,"time_elapsed":414450,"internal_node_id":"0.0-21.0"},{"type":"card_game","game_type":"straight_flush","losers":false,"see_result":true,"my_hand":"h_3_0_0_0","opponent_hand":"h_1_0_0_0","win":false,"tie":false,"bet":0,"earnings":0,"expected_value":-0.34375,"expected_earnings":0,"bet_rt":2400,"block":1,"trial_type":"card_game","trial_index":22,"time_elapsed":418394,"internal_node_id":"0.0-22.0"},{"type":"card_game","game_type":"straight_flush","losers":false,"see_result":true,"my_hand":"h_2_1_0_0","opponent_hand":"h_0_1_0_1","win":true,"tie":false,"bet":0,"earnings":0,"expected_value":-0.59375,"expected_earnings":0,"bet_rt":1089,"block":1,"trial_type":"card_game","trial_index":23,"time_elapsed":421036,"internal_node_id":"0.0-23.0"},{"type":"card_game","game_type":"straight_flush","losers":false,"see_result":true,"my_hand":"h_0_0_3_1","opponent_hand":"h_0_1_2_1","win":true,"tie":false,"bet":0,"earnings":0,"expected_value":-0.21875,"expected_earnings":0,"bet_rt":1037,"block":1,"trial_type":"card_game","trial_index":24,"time_elapsed":423634,"internal_node_id":"0.0-24.0"},{"type":"card_game","game_type":"straight_flush","losers":false,"see_result":true,"my_hand":"h_0_1_1_0","opponent_hand":"h_2_0_3_0","win":false,"tie":false,"bet":0,"earnings":0,"expected_value":0.28125,"expected_earnings":0,"bet_rt":1725,"block":1,"trial_type":"card_game","trial_index":25,"time_elapsed":426928,"internal_node_id":"0.0-25.0"},{"type":"card_game","game_type":"straight_flush","losers":false,"see_result":true,"my_hand":"h_0_0_1_1","opponent_hand":"h_2_1_0_0","win":true,"tie":false,"bet":0,"earnings":0,"expected_value":0.34375,"expected_earnings":0,"bet_rt":2131,"block":1,"trial_type":"card_game","trial_index":26,"time_elapsed":430627,"internal_node_id":"0.0-26.0"},{"type":"card_game","game_type":"straight_flush","losers":false,"see_result":true,"my_hand":"h_3_0_0_1","opponent_hand":"h_0_1_2_0","win":true,"tie":false,"bet":0,"earnings":0,"expected_value":-0.28125,"expected_earnings":0,"bet_rt":1220,"block":1,"trial_type":"card_game","trial_index":27,"time_elapsed":433415,"internal_node_id":"0.0-27.0"},{"type":"card_game","game_type":"straight_flush","losers":false,"see_result":true,"my_hand":"h_3_1_3_1","opponent_hand":"h_2_0_3_1","win":false,"tie":false,"bet":0,"earnings":0,"expected_value":0.234375,"expected_earnings":0,"bet_rt":4699,"block":1,"trial_type":"card_game","trial_index":28,"time_elapsed":439670,"internal_node_id":"0.0-28.0"},{"type":"card_game","game_type":"straight_flush","losers":false,"see_result":true,"my_hand":"h_0_0_1_0","opponent_hand":"h_2_0_2_0","win":true,"tie":false,"bet":1,"earnings":5,"expected_value":0.65625,"expected_earnings":3.28125,"bet_rt":4840,"block":1,"trial_type":"card_game","trial_index":29,"time_elapsed":446101,"internal_node_id":"0.0-29.0"},{"type":"card_game","game_type":"straight_flush","losers":false,"see_result":true,"my_hand":"h_2_1_3_1","opponent_hand":"h_0_1_3_0","win":true,"tie":false,"bet":2,"earnings":10,"expected_value":0.96875,"expected_earnings":9.6875,"bet_rt":1211,"block":1,"trial_type":"card_game","trial_index":30,"time_elapsed":448861,"internal_node_id":"0.0-30.0"},{"type":"card_game","game_type":"straight_flush","losers":false,"see_result":true,"my_hand":"h_2_0_0_0","opponent_hand":"h_1_1_1_1","win":true,"tie":false,"bet":0,"earnings":0,"expected_value":-0.71875,"expected_earnings":0,"bet_rt":7884,"block":1,"trial_type":"card_game","trial_index":31,"time_elapsed":458323,"internal_node_id":"0.0-31.0"},{"type":"card_game","game_type":"straight_flush","losers":false,"see_result":true,"my_hand":"h_1_0_3_1","opponent_hand":"h_2_0_3_1","win":false,"tie":false,"bet":0,"earnings":0,"expected_value":0.03125,"expected_earnings":0,"bet_rt":1220,"block":1,"trial_type":"card_game","trial_index":32,"time_elapsed":461090,"internal_node_id":"0.0-32.0"},{"type":"card_game","game_type":"straight_flush","losers":false,"see_result":true,"my_hand":"h_0_1_0_0","opponent_hand":"h_0_1_0_0","win":false,"tie":true,"bet":0,"earnings":0,"expected_value":-0.9375,"expected_earnings":0,"bet_rt":4503,"block":1,"trial_type":"card_game","trial_index":33,"time_elapsed":467155,"internal_node_id":"0.0-33.0"},{"type":"card_game","game_type":"straight_flush","losers":false,"see_result":true,"my_hand":"h_2_0_3_1","opponent_hand":"h_0_1_1_1","win":false,"tie":false,"bet":1,"earnings":-5,"expected_value":0.59375,"expected_earnings":2.96875,"bet_rt":1491,"block":1,"trial_type":"card_game","trial_index":34,"time_elapsed":470206,"internal_node_id":"0.0-34.0"},{"type":"card_game","game_type":"straight_flush","losers":false,"see_result":true,"my_hand":"h_2_0_1_0","opponent_hand":"h_0_0_1_1","win":true,"tie":false,"bet":1,"earnings":5,"expected_value":0.78125,"expected_earnings":3.90625,"bet_rt":2086,"block":1,"trial_type":"card_game","trial_index":35,"time_elapsed":473868,"internal_node_id":"0.0-35.0"},{"type":"card_game","game_type":"straight_flush","losers":false,"see_result":true,"my_hand":"h_2_0_1_1","opponent_hand":"h_1_0_3_0","win":true,"tie":false,"bet":2,"earnings":10,"expected_value":0.40625,"expected_earnings":4.0625,"bet_rt":2001,"block":1,"trial_type":"card_game","trial_index":36,"time_elapsed":477414,"internal_node_id":"0.0-36.0"},{"type":"card_game","game_type":"straight_flush","losers":false,"see_result":true,"my_hand":"h_3_1_3_1","opponent_hand":"h_0_1_0_1","win":true,"tie":false,"bet":0,"earnings":0,"expected_value":0.234375,"expected_earnings":0,"bet_rt":4213,"block":1,"trial_type":"card_game","trial_index":37,"time_elapsed":483179,"internal_node_id":"0.0-37.0"},{"type":"card_game","game_type":"straight_flush","losers":false,"see_result":true,"my_hand":"h_2_1_1_1","opponent_hand":"h_2_0_3_0","win":false,"tie":false,"bet":1,"earnings":-5,"expected_value":0.84375,"expected_earnings":4.21875,"bet_rt":1543,"block":1,"trial_type":"card_game","trial_index":38,"time_elapsed":486298,"internal_node_id":"0.0-38.0"},{"rt":6371.450000006007,"stimulus":"<p>You earned a performance bonus of 30 cents on this set of trials, plus $1.50 for making it to this phase.</p><p>Press any key to continue.</p>","key_press":76,"trial_type":"html-keyboard-response","trial_index":39,"time_elapsed":492672,"internal_node_id":"0.0-39.0"},{"rt":5723.63000002224,"stimulus":"<p>To test how well you understand the game, we'll now give you a series of hands where you won't see your results after you bet. You will just see your earnings at the end of the set of hands.</p><p>Press any key to continue.</p>","key_press":74,"trial_type":"html-keyboard-response","trial_index":40,"time_elapsed":498396,"internal_node_id":"0.0-40.0"},{"type":"card_game","game_type":"straight_flush","losers":false,"see_result":false,"my_hand":"h_2_0_1_1","opponent_hand":"h_2_1_1_0","win":false,"tie":false,"bet":1,"earnings":-5,"expected_value":0.40625,"expected_earnings":2.03125,"bet_rt":4826,"block":2,"trial_type":"card_game","trial_index":41,"time_elapsed":503724,"internal_node_id":"0.0-41.0"},{"type":"card_game","game_type":"straight_flush","losers":false,"see_result":false,"my_hand":"h_1_1_0_0","opponent_hand":"h_1_0_1_1","win":true,"tie":false,"bet":1,"earnings":5,"expected_value":0.34375,"expected_earnings":1.71875,"bet_rt":3825,"block":2,"trial_type":"card_game","trial_index":42,"time_elapsed":508051,"internal_node_id":"0.0-42.0"},{"type":"card_game","game_type":"straight_flush","losers":false,"see_result":false,"my_hand":"h_0_1_1_1","opponent_hand":"h_3_1_0_1","win":true,"tie":false,"bet":1,"earnings":5,"expected_value":0.71875,"expected_earnings":3.59375,"bet_rt":1388,"block":2,"trial_type":"card_game","trial_index":43,"time_elapsed":509942,"internal_node_id":"0.0-43.0"},{"type":"card_game","game_type":"straight_flush","losers":false,"see_result":false,"my_hand":"h_0_1_2_1","opponent_hand":"h_0_0_2_0","win":true,"tie":false,"bet":0,"earnings":0,"expected_value":-0.53125,"expected_earnings":0,"bet_rt":1778,"block":2,"trial_type":"card_game","trial_index":44,"time_elapsed":512222,"internal_node_id":"0.0-44.0"},{"type":"card_game","game_type":"straight_flush","losers":false,"see_result":false,"my_hand":"h_1_0_3_1","opponent_hand":"h_2_0_3_1","win":false,"tie":false,"bet":0,"earnings":0,"expected_value":0.03125,"expected_earnings":0,"bet_rt":1986,"block":2,"trial_type":"card_game","trial_index":45,"time_elapsed":514711,"internal_node_id":"0.0-45.0"},{"type":"card_game","game_type":"straight_flush","losers":false,"see_result":false,"my_hand":"h_2_1_3_1","opponent_hand":"h_0_1_1_0","win":true,"tie":false,"bet":2,"earnings":10,"expected_value":0.96875,"expected_earnings":9.6875,"bet_rt":1221,"block":2,"trial_type":"card_game","trial_index":46,"time_elapsed":516435,"internal_node_id":"0.0-46.0"},{"type":"card_game","game_type":"straight_flush","losers":false,"see_result":false,"my_hand":"h_2_1_3_1","opponent_hand":"h_3_1_3_0","win":true,"tie":false,"bet":2,"earnings":10,"expected_value":0.96875,"expected_earnings":9.6875,"bet_rt":2114,"block":2,"trial_type":"card_game","trial_index":47,"time_elapsed":519051,"internal_node_id":"0.0-47.0"},{"type":"card_game","game_type":"straight_flush","losers":false,"see_result":false,"my_hand":"h_0_1_2_1","opponent_hand":"h_0_0_1_1","win":false,"tie":false,"bet":0,"earnings":0,"expected_value":-0.53125,"expected_earnings":0,"bet_rt":1678,"block":2,"trial_type":"card_game","trial_index":48,"time_elapsed":521230,"internal_node_id":"0.0-48.0"},{"type":"card_game","game_type":"straight_flush","losers":false,"see_result":false,"my_hand":"h_1_0_1_0","opponent_hand":"h_2_0_0_1","win":false,"tie":false,"bet":0,"earnings":0,"expected_value":-0.859375,"expected_earnings":0,"bet_rt":1245,"block":2,"trial_type":"card_game","trial_index":49,"time_elapsed":522978,"internal_node_id":"0.0-49.0"},{"type":"card_game","game_type":"straight_flush","losers":false,"see_result":false,"my_hand":"h_0_0_3_0","opponent_hand":"h_0_0_2_1","win":true,"tie":false,"bet":1,"earnings":5,"expected_value":-0.34375,"expected_earnings":-1.71875,"bet_rt":2739,"block":2,"trial_type":"card_game","trial_index":50,"time_elapsed":526219,"internal_node_id":"0.0-50.0"},{"type":"card_game","game_type":"straight_flush","losers":false,"see_result":false,"my_hand":"h_3_0_3_0","opponent_hand":"h_3_0_2_1","win":false,"tie":false,"bet":0,"earnings":0,"expected_value":0.140625,"expected_earnings":0,"bet_rt":1336,"block":2,"trial_type":"card_game","trial_index":51,"time_elapsed":528057,"internal_node_id":"0.0-51.0"},{"type":"card_game","game_type":"straight_flush","losers":false,"see_result":false,"my_hand":"h_2_1_1_1","opponent_hand":"h_0_1_2_0","win":true,"tie":false,"bet":2,"earnings":10,"expected_value":0.84375,"expected_earnings":8.4375,"bet_rt":2125,"block":2,"trial_type":"card_game","trial_index":52,"time_elapsed":530683,"internal_node_id":"0.0-52.0"},{"type":"card_game","game_type":"straight_flush","losers":false,"see_result":false,"my_hand":"h_3_0_1_1","opponent_hand":"h_1_1_0_1","win":false,"tie":false,"bet":0,"earnings":0,"expected_value":-0.03125,"expected_earnings":0,"bet_rt":1617,"block":2,"trial_type":"card_game","trial_index":53,"time_elapsed":532802,"internal_node_id":"0.0-53.0"},{"type":"card_game","game_type":"straight_flush","losers":false,"see_result":false,"my_hand":"h_3_0_3_0","opponent_hand":"h_2_0_0_1","win":true,"tie":false,"bet":0,"earnings":0,"expected_value":0.140625,"expected_earnings":0,"bet_rt":980,"block":2,"trial_type":"card_game","trial_index":54,"time_elapsed":534284,"internal_node_id":"0.0-54.0"},{"type":"card_game","game_type":"straight_flush","losers":false,"see_result":false,"my_hand":"h_3_0_0_0","opponent_hand":"h_0_1_0_0","win":true,"tie":false,"bet":1,"earnings":5,"expected_value":-0.34375,"expected_earnings":-1.71875,"bet_rt":1706,"block":2,"trial_type":"card_game","trial_index":55,"time_elapsed":536491,"internal_node_id":"0.0-55.0"},{"type":"card_game","game_type":"straight_flush","losers":false,"see_result":false,"my_hand":"h_3_0_1_0","opponent_hand":"h_0_0_2_1","win":true,"tie":false,"bet":0,"earnings":0,"expected_value":-0.09375,"expected_earnings":0,"bet_rt":1336,"block":2,"trial_type":"card_game","trial_index":56,"time_elapsed":538329,"internal_node_id":"0.0-56.0"},{"type":"card_game","game_type":"straight_flush","losers":false,"see_result":false,"my_hand":"h_2_0_0_1","opponent_hand":"h_3_1_2_0","win":false,"tie":false,"bet":0,"earnings":0,"expected_value":-0.65625,"expected_earnings":0,"bet_rt":2217,"block":2,"trial_type":"card_game","trial_index":57,"time_elapsed":541048,"internal_node_id":"0.0-57.0"},{"type":"card_game","game_type":"straight_flush","losers":false,"see_result":false,"my_hand":"h_1_0_1_1","opponent_hand":"h_1_0_3_0","win":false,"tie":false,"bet":0,"earnings":0,"expected_value":-0.8125,"expected_earnings":0,"bet_rt":1104,"block":2,"trial_type":"card_game","trial_index":58,"time_elapsed":542655,"internal_node_id":"0.0-58.0"},{"type":"card_game","game_type":"straight_flush","losers":false,"see_result":false,"my_hand":"h_0_1_3_0","opponent_hand":"h_3_1_0_0","win":false,"tie":false,"bet":0,"earnings":0,"expected_value":-0.28125,"expected_earnings":0,"bet_rt":1372,"block":2,"trial_type":"card_game","trial_index":59,"time_elapsed":544528,"internal_node_id":"0.0-59.0"},{"type":"card_game","game_type":"straight_flush","losers":false,"see_result":false,"my_hand":"h_1_0_2_1","opponent_hand":"h_1_1_2_0","win":true,"tie":false,"bet":1,"earnings":5,"expected_value":0.46875,"expected_earnings":2.34375,"bet_rt":1116,"block":2,"trial_type":"card_game","trial_index":60,"time_elapsed":546146,"internal_node_id":"0.0-60.0"},{"type":"card_game","game_type":"straight_flush","losers":false,"see_result":false,"my_hand":"h_3_1_0_0","opponent_hand":"h_0_0_2_0","win":true,"tie":false,"bet":0,"earnings":0,"expected_value":-0.21875,"expected_earnings":0,"bet_rt":1180,"block":2,"trial_type":"card_game","trial_index":61,"time_elapsed":547827,"internal_node_id":"0.0-61.0"},{"type":"card_game","game_type":"straight_flush","losers":false,"see_result":false,"my_hand":"h_0_0_1_0","opponent_hand":"h_1_1_2_1","win":false,"tie":false,"bet":1,"earnings":-5,"expected_value":0.65625,"expected_earnings":3.28125,"bet_rt":1507,"block":2,"trial_type":"card_game","trial_index":62,"time_elapsed":549836,"internal_node_id":"0.0-62.0"},{"type":"card_game","game_type":"straight_flush","losers":false,"see_result":false,"my_hand":"h_3_1_2_0","opponent_hand":"h_2_1_3_1","win":false,"tie":false,"bet":2,"earnings":-10,"expected_value":0.59375,"expected_earnings":5.9375,"bet_rt":2058,"block":2,"trial_type":"card_game","trial_index":63,"time_elapsed":552395,"internal_node_id":"0.0-63.0"},{"type":"card_game","game_type":"straight_flush","losers":false,"see_result":false,"my_hand":"h_1_1_1_0","opponent_hand":"h_2_0_2_0","win":false,"tie":false,"bet":0,"earnings":0,"expected_value":-0.8125,"expected_earnings":0,"bet_rt":1489,"block":2,"trial_type":"card_game","trial_index":64,"time_elapsed":554385,"internal_node_id":"0.0-64.0"},{"rt":7988.075000001118,"stimulus":"<p>You earned a performance bonus of 40 cents on this set of trials.</p><p>You have earned a performance bonus of 70 cents over the experiment so far, plus $1.50 for making it to this phase.</p><p>Press any key to continue.</p>","key_press":74,"trial_type":"html-keyboard-response","trial_index":65,"time_elapsed":562377,"internal_node_id":"0.0-65.0"},{"rt":11995.95500002033,"stimulus":"<p><font color='red'><b>Now, we want you to try to lose the game! For the remainder of the experiment, if you bet and lose, you'll gain the amount you bet, and if you bet and win, you'll lose the amount you bet.</b></font></p><p>As before, you won't win or lose anything if you tie your opponent, or if you don't bet.</p><p>Press any key to continue.</p>","key_press":75,"trial_type":"html-keyboard-response","trial_index":66,"time_elapsed":574375,"internal_node_id":"0.0-66.0"},{"rt":6013.249999989057,"responses":"{\"Q0\":\"Bet and my hand loses.\"}","question_order":"[0]","response_trial_type":"attention_check","trial_type":"survey-multi-choice","trial_index":67,"time_elapsed":580393,"internal_node_id":"0.0-67.0"},{"rt":2867.1850000100676,"stimulus":"<p>Great, now you get to play a few hands!</p><p>As before, you won't see your results after you bet. You will just see your earnings at the end of the set of hands.</p><p>Press any key to continue.</p>","key_press":75,"trial_type":"html-keyboard-response","trial_index":68,"time_elapsed":583262,"internal_node_id":"0.0-68.0"},{"type":"card_game","game_type":"straight_flush","losers":true,"see_result":false,"my_hand":"h_2_0_2_1","opponent_hand":"h_2_0_1_0","win":true,"tie":false,"bet":2,"earnings":10,"expected_value":0.4375,"expected_earnings":4.375,"bet_rt":5051,"block":3,"trial_type":"card_game","trial_index":69,"time_elapsed":588816,"internal_node_id":"0.0-69.0"},{"type":"card_game","game_type":"straight_flush","losers":true,"see_result":false,"my_hand":"h_1_1_3_1","opponent_hand":"h_1_1_1_1","win":false,"tie":false,"bet":0,"earnings":0,"expected_value":-0.09375,"expected_earnings":0,"bet_rt":7676,"block":3,"trial_type":"card_game","trial_index":70,"time_elapsed":596993,"internal_node_id":"0.0-70.0"},{"type":"card_game","game_type":"straight_flush","losers":true,"see_result":false,"my_hand":"h_3_0_1_1","opponent_hand":"h_1_1_3_0","win":false,"tie":true,"bet":0,"earnings":0,"expected_value":0.03125,"expected_earnings":0,"bet_rt":2686,"block":3,"trial_type":"card_game","trial_index":71,"time_elapsed":600181,"internal_node_id":"0.0-71.0"},{"type":"card_game","game_type":"straight_flush","losers":true,"see_result":false,"my_hand":"h_1_1_2_1","opponent_hand":"h_0_0_2_1","win":false,"tie":false,"bet":0,"earnings":0,"expected_value":-0.84375,"expected_earnings":0,"bet_rt":4977,"block":3,"trial_type":"card_game","trial_index":72,"time_elapsed":605661,"internal_node_id":"0.0-72.0"},{"type":"card_game","game_type":"straight_flush","losers":true,"see_result":false,"my_hand":"h_3_0_2_1","opponent_hand":"h_1_0_1_1","win":false,"tie":false,"bet":0,"earnings":0,"expected_value":-0.53125,"expected_earnings":0,"bet_rt":1559,"block":3,"trial_type":"card_game","trial_index":73,"time_elapsed":607722,"internal_node_id":"0.0-73.0"},{"type":"card_game","game_type":"straight_flush","losers":true,"see_result":false,"my_hand":"h_2_0_2_1","opponent_hand":"h_3_1_1_0","win":true,"tie":false,"bet":2,"earnings":10,"expected_value":0.4375,"expected_earnings":4.375,"bet_rt":1902,"block":3,"trial_type":"card_game","trial_index":74,"time_elapsed":610126,"internal_node_id":"0.0-74.0"},{"type":"card_game","game_type":"straight_flush","losers":true,"see_result":false,"my_hand":"h_1_1_3_0","opponent_hand":"h_0_0_1_1","win":true,"tie":false,"bet":0,"earnings":0,"expected_value":0.03125,"expected_earnings":0,"bet_rt":2419,"block":3,"trial_type":"card_game","trial_index":75,"time_elapsed":613047,"internal_node_id":"0.0-75.0"},{"type":"card_game","game_type":"straight_flush","losers":true,"see_result":false,"my_hand":"h_3_0_2_0","opponent_hand":"h_2_0_3_1","win":false,"tie":false,"bet":0,"earnings":0,"expected_value":-0.90625,"expected_earnings":0,"bet_rt":1411,"block":3,"trial_type":"card_game","trial_index":76,"time_elapsed":614960,"internal_node_id":"0.0-76.0"},{"type":"card_game","game_type":"straight_flush","losers":true,"see_result":false,"my_hand":"h_0_1_1_1","opponent_hand":"h_1_0_3_1","win":false,"tie":false,"bet":0,"earnings":0,"expected_value":-0.71875,"expected_earnings":0,"bet_rt":2157,"block":3,"trial_type":"card_game","trial_index":77,"time_elapsed":617619,"internal_node_id":"0.0-77.0"},{"type":"card_game","game_type":"straight_flush","losers":true,"see_result":false,"my_hand":"h_2_1_2_1","opponent_hand":"h_3_0_1_1","win":true,"tie":false,"bet":2,"earnings":10,"expected_value":0.390625,"expected_earnings":3.90625,"bet_rt":1288,"block":3,"trial_type":"card_game","trial_index":78,"time_elapsed":619410,"internal_node_id":"0.0-78.0"},{"type":"card_game","game_type":"straight_flush","losers":true,"see_result":false,"my_hand":"h_1_0_2_0","opponent_hand":"h_0_1_1_0","win":false,"tie":false,"bet":0,"earnings":0,"expected_value":-0.78125,"expected_earnings":0,"bet_rt":1191,"block":3,"trial_type":"card_game","trial_index":79,"time_elapsed":621103,"internal_node_id":"0.0-79.0"},{"type":"card_game","game_type":"straight_flush","losers":true,"see_result":false,"my_hand":"h_0_1_1_0","opponent_hand":"h_2_0_1_0","win":true,"tie":false,"bet":0,"earnings":0,"expected_value":-0.28125,"expected_earnings":0,"bet_rt":1358,"block":3,"trial_type":"card_game","trial_index":80,"time_elapsed":622963,"internal_node_id":"0.0-80.0"},{"type":"card_game","game_type":"straight_flush","losers":true,"see_result":false,"my_hand":"h_1_1_2_0","opponent_hand":"h_0_1_2_0","win":false,"tie":false,"bet":0,"earnings":0,"expected_value":-0.40625,"expected_earnings":0,"bet_rt":2088,"block":3,"trial_type":"card_game","trial_index":81,"time_elapsed":625553,"internal_node_id":"0.0-81.0"},{"type":"card_game","game_type":"straight_flush","losers":true,"see_result":false,"my_hand":"h_3_0_1_0","opponent_hand":"h_1_1_2_1","win":true,"tie":false,"bet":0,"earnings":0,"expected_value":0.09375,"expected_earnings":0,"bet_rt":2981,"block":3,"trial_type":"card_game","trial_index":82,"time_elapsed":629036,"internal_node_id":"0.0-82.0"},{"type":"card_game","game_type":"straight_flush","losers":true,"see_result":false,"my_hand":"h_1_1_1_0","opponent_hand":"h_3_1_3_1","win":true,"tie":false,"bet":2,"earnings":10,"expected_value":0.8125,"expected_earnings":8.125,"bet_rt":2916,"block":3,"trial_type":"card_game","trial_index":83,"time_elapsed":632453,"internal_node_id":"0.0-83.0"},{"type":"card_game","game_type":"straight_flush","losers":true,"see_result":false,"my_hand":"h_1_0_3_1","opponent_hand":"h_3_1_1_0","win":false,"tie":true,"bet":0,"earnings":0,"expected_value":-0.03125,"expected_earnings":0,"bet_rt":1130,"block":3,"trial_type":"card_game","trial_index":84,"time_elapsed":634084,"internal_node_id":"0.0-84.0"},{"type":"card_game","game_type":"straight_flush","losers":true,"see_result":false,"my_hand":"h_0_0_0_0","opponent_hand":"h_2_0_3_1","win":true,"tie":false,"bet":2,"earnings":10,"expected_value":0.984375,"expected_earnings":9.84375,"bet_rt":2854,"block":3,"trial_type":"card_game","trial_index":85,"time_elapsed":637441,"internal_node_id":"0.0-85.0"},{"type":"card_game","game_type":"straight_flush","losers":true,"see_result":false,"my_hand":"h_0_1_2_0","opponent_hand":"h_2_0_0_0","win":false,"tie":false,"bet":0,"earnings":0,"expected_value":0.65625,"expected_earnings":0,"bet_rt":2106,"block":3,"trial_type":"card_game","trial_index":86,"time_elapsed":640049,"internal_node_id":"0.0-86.0"},{"type":"card_game","game_type":"straight_flush","losers":true,"see_result":false,"my_hand":"h_3_1_1_0","opponent_hand":"h_2_1_3_0","win":true,"tie":false,"bet":0,"earnings":0,"expected_value":-0.03125,"expected_earnings":0,"bet_rt":1966,"block":3,"trial_type":"card_game","trial_index":87,"time_elapsed":642517,"internal_node_id":"0.0-87.0"},{"type":"card_game","game_type":"straight_flush","losers":true,"see_result":false,"my_hand":"h_2_0_0_1","opponent_hand":"h_3_0_1_0","win":true,"tie":false,"bet":0,"earnings":0,"expected_value":0.65625,"expected_earnings":0,"bet_rt":1773,"block":3,"trial_type":"card_game","trial_index":88,"time_elapsed":644792,"internal_node_id":"0.0-88.0"},{"type":"card_game","game_type":"straight_flush","losers":true,"see_result":false,"my_hand":"h_1_0_1_1","opponent_hand":"h_0_1_0_1","win":false,"tie":false,"bet":2,"earnings":-10,"expected_value":0.8125,"expected_earnings":8.125,"bet_rt":5195,"block":3,"trial_type":"card_game","trial_index":89,"time_elapsed":650489,"internal_node_id":"0.0-89.0"},{"type":"card_game","game_type":"straight_flush","losers":true,"see_result":false,"my_hand":"h_2_1_0_1","opponent_hand":"h_0_1_1_1","win":true,"tie":false,"bet":0,"earnings":0,"expected_value":0.53125,"expected_earnings":0,"bet_rt":1816,"block":3,"trial_type":"card_game","trial_index":90,"time_elapsed":652807,"internal_node_id":"0.0-90.0"},{"type":"card_game","game_type":"straight_flush","losers":true,"see_result":false,"my_hand":"h_3_1_2_0","opponent_hand":"h_2_1_1_1","win":true,"tie":false,"bet":0,"earnings":0,"expected_value":-0.59375,"expected_earnings":0,"bet_rt":1503,"block":3,"trial_type":"card_game","trial_index":91,"time_elapsed":654811,"internal_node_id":"0.0-91.0"},{"type":"card_game","game_type":"straight_flush","losers":true,"see_result":false,"my_hand":"h_2_0_1_1","opponent_hand":"h_0_0_2_0","win":false,"tie":false,"bet":0,"earnings":0,"expected_value":-0.40625,"expected_earnings":0,"bet_rt":1247,"block":3,"trial_type":"card_game","trial_index":92,"time_elapsed":656560,"internal_node_id":"0.0-92.0"},{"rt":13786.485000018729,"stimulus":"<p>You earned a performance bonus of 40 cents on this set of trials.</p><p>You have earned a performance bonus of 110 cents over the experiment so far, plus $1.50 for making it to this phase.</p><p>Press any key to continue.</p>","key_press":75,"trial_type":"html-keyboard-response","trial_index":93,"time_elapsed":670347,"internal_node_id":"0.0-93.0"},{"rt":1871.0600000049453,"stimulus":"<p>Great, we just have a few questions to ask you and then you'll be finished!</p><p>Press any key to continue.</p>","key_press":75,"trial_type":"html-keyboard-response","trial_index":94,"time_elapsed":672219,"internal_node_id":"0.0-94.0"},{"rt":13221.649999992223,"responses":"{\"Q0\":4,\"Q1\":2,\"Q2\":2}","question_order":"[0,1,2]","response_trial_type":"debrief","trial_type":"survey-likert","trial_index":95,"time_elapsed":685442,"internal_node_id":"0.0-95.0"},{"rt":10105.054999992717,"responses":"{\"Q0\":\"45-55\",\"Q1\":\"Associates or other two-year degree\",\"Q2\":\"Female\",\"Q3\":\"White\"}","question_order":"[0,1,2,3]","response_trial_type":"demographics","trial_type":"survey-multi-choice","trial_index":96,"time_elapsed":695549,"internal_node_id":"0.0-96.0"},{"rt":8498.285000008764,"responses":"{\"Q0\":\"I enjoyed this, thanks. \"}","response_trial_type":"comments","trial_type":"survey-text","trial_index":97,"time_elapsed":704056,"internal_node_id":"0.0-97.0"}]