[{"view_history":"[{\"page_index\":0,\"viewing_time\":9680.87499999092},{\"page_index\":1,\"viewing_time\":30196.420000007492},{\"page_index\":2,\"viewing_time\":37757.8349999967},{\"page_index\":3,\"viewing_time\":123667.96500000055},{\"page_index\":4,\"viewing_time\":200678.08500000683},{\"page_index\":5,\"viewing_time\":2245.2550000016345},{\"page_index\":6,\"viewing_time\":4023.0999999912456},{\"page_index\":5,\"viewing_time\":2228.849999999511},{\"page_index\":4,\"viewing_time\":2103.6350000067614},{\"page_index\":5,\"viewing_time\":19186.014999999315},{\"page_index\":6,\"viewing_time\":13561.734999995679}]","rt":445330.6650000013,"trial_type":"instructions","trial_index":0,"time_elapsed":445333,"internal_node_id":"0.0-0.0"},{"type":"hand_comparison","hand_win":"h_1_0_2_1","hand_lose":"h_3_0_0_0","explanation":"Adjacent cards beat non-adjacent.","hand_indices":[1,0],"hand_choice":1,"correct":true,"rt":7402,"trial_type":"hand_comparison","trial_index":1,"time_elapsed":454743,"internal_node_id":"0.0-1.0"},{"type":"hand_comparison","hand_win":"h_0_0_1_0","hand_lose":"h_3_0_2_1","explanation":"Same-suit adjacent beats different suit.","hand_indices":[1,0],"hand_choice":1,"correct":true,"rt":21066,"trial_type":"hand_comparison","trial_index":2,"time_elapsed":477811,"internal_node_id":"0.0-2.0"},{"type":"hand_comparison","hand_win":"h_3_0_0_1","hand_lose":"h_2_0_2_1","explanation":"Highest card breaks ties.","hand_indices":[0,1],"hand_choice":0,"correct":true,"rt":61410,"trial_type":"hand_comparison","trial_index":3,"time_elapsed":541225,"internal_node_id":"0.0-3.0"},{"type":"hand_comparison","hand_win":"h_3_1_2_1","hand_lose":"h_2_0_3_0","explanation":"Black cards beat red cards if the numbers are tied.","hand_indices":[0,1],"hand_choice":0,"correct":true,"rt":17699,"trial_type":"hand_comparison","trial_index":4,"time_elapsed":560927,"internal_node_id":"0.0-4.0"},{"rt":20552.43999999948,"stimulus":"<p><b>Congratulations, you passed the test, and will get to proceed to phase 2!</b></p><p>You have earned a $1.50 bonus, and will be awarded a performance bonus based on your bets in the next phase.</p><p>Press any key to continue.</p>","key_press":32,"trial_type":"html-keyboard-response","trial_index":5,"time_elapsed":581481,"internal_node_id":"0.0-5.0"},{"rt":16335.149999998976,"stimulus":"<p>Now you get to play a few hands. After you bet, we'll show you your opponent's hand and how much you won (or lost), and at the end of these hands we'll tell you your total earnings.</p><p>Press any key to continue.</p>","key_press":32,"trial_type":"html-keyboard-response","trial_index":6,"time_elapsed":597817,"internal_node_id":"0.0-6.0"},{"type":"card_game","game_type":"straight_flush","losers":false,"see_result":true,"my_hand":"h_3_0_0_1","opponent_hand":"h_0_1_1_0","win":false,"tie":false,"bet":0,"earnings":0,"expected_value":-0.28125,"expected_earnings":0,"bet_rt":13931,"block":1,"trial_type":"card_game","trial_index":7,"time_elapsed":613303,"internal_node_id":"0.0-7.0"},{"type":"card_game","game_type":"straight_flush","losers":false,"see_result":true,"my_hand":"h_2_1_3_0","opponent_hand":"h_1_0_3_0","win":true,"tie":false,"bet":2,"earnings":10,"expected_value":0.53125,"expected_earnings":5.3125,"bet_rt":6496,"block":1,"trial_type":"card_game","trial_index":8,"time_elapsed":621354,"internal_node_id":"0.0-8.0"},{"type":"card_game","game_type":"straight_flush","losers":false,"see_result":true,"my_hand":"h_3_0_2_0","opponent_hand":"h_3_0_2_1","win":true,"tie":false,"bet":2,"earnings":10,"expected_value":0.90625,"expected_earnings":9.0625,"bet_rt":4789,"block":1,"trial_type":"card_game","trial_index":9,"time_elapsed":627699,"internal_node_id":"0.0-9.0"},{"type":"card_game","game_type":"straight_flush","losers":false,"see_result":true,"my_hand":"h_1_1_2_0","opponent_hand":"h_0_0_3_1","win":true,"tie":false,"bet":2,"earnings":10,"expected_value":0.40625,"expected_earnings":4.0625,"bet_rt":3933,"block":1,"trial_type":"card_game","trial_index":10,"time_elapsed":633184,"internal_node_id":"0.0-10.0"},{"type":"card_game","game_type":"straight_flush","losers":false,"see_result":true,"my_hand":"h_3_0_1_1","opponent_hand":"h_2_0_3_0","win":false,"tie":false,"bet":0,"earnings":0,"expected_value":-0.03125,"expected_earnings":0,"bet_rt":3254,"block":1,"trial_type":"card_game","trial_index":11,"time_elapsed":637981,"internal_node_id":"0.0-11.0"},{"type":"card_game","game_type":"straight_flush","losers":false,"see_result":true,"my_hand":"h_2_0_3_1","opponent_hand":"h_0_1_2_1","win":true,"tie":false,"bet":1,"earnings":5,"expected_value":0.59375,"expected_earnings":2.96875,"bet_rt":3745,"block":1,"trial_type":"card_game","trial_index":12,"time_elapsed":643272,"internal_node_id":"0.0-12.0"},{"type":"card_game","game_type":"straight_flush","losers":false,"see_result":true,"my_hand":"h_3_0_0_1","opponent_hand":"h_3_1_0_1","win":false,"tie":false,"bet":0,"earnings":0,"expected_value":-0.28125,"expected_earnings":0,"bet_rt":3666,"block":1,"trial_type":"card_game","trial_index":13,"time_elapsed":648486,"internal_node_id":"0.0-13.0"},{"type":"card_game","game_type":"straight_flush","losers":false,"see_result":true,"my_hand":"h_2_1_0_0","opponent_hand":"h_3_1_1_1","win":false,"tie":false,"bet":0,"earnings":0,"expected_value":-0.59375,"expected_earnings":0,"bet_rt":2742,"block":1,"trial_type":"card_game","trial_index":14,"time_elapsed":652771,"internal_node_id":"0.0-14.0"},{"type":"card_game","game_type":"straight_flush","losers":false,"see_result":true,"my_hand":"h_3_1_3_0","opponent_hand":"h_1_0_3_0","win":true,"tie":false,"bet":0,"earnings":0,"expected_value":0.1875,"expected_earnings":0,"bet_rt":2343,"block":1,"trial_type":"card_game","trial_index":15,"time_elapsed":656669,"internal_node_id":"0.0-15.0"},{"type":"card_game","game_type":"straight_flush","losers":false,"see_result":true,"my_hand":"h_0_0_0_0","opponent_hand":"h_2_0_0_1","win":false,"tie":false,"bet":0,"earnings":0,"expected_value":-0.984375,"expected_earnings":0,"bet_rt":3184,"block":1,"trial_type":"card_game","trial_index":16,"time_elapsed":661399,"internal_node_id":"0.0-16.0"},{"type":"card_game","game_type":"straight_flush","losers":false,"see_result":true,"my_hand":"h_3_0_1_0","opponent_hand":"h_1_0_3_0","win":false,"tie":true,"bet":1,"earnings":0,"expected_value":-0.09375,"expected_earnings":-0.46875,"bet_rt":4968,"block":1,"trial_type":"card_game","trial_index":17,"time_elapsed":667909,"internal_node_id":"0.0-17.0"},{"type":"card_game","game_type":"straight_flush","losers":false,"see_result":true,"my_hand":"h_1_0_0_1","opponent_hand":"h_2_1_2_1","win":true,"tie":false,"bet":1,"earnings":5,"expected_value":0.28125,"expected_earnings":1.40625,"bet_rt":4333,"block":1,"trial_type":"card_game","trial_index":18,"time_elapsed":673791,"internal_node_id":"0.0-18.0"},{"type":"card_game","game_type":"straight_flush","losers":false,"see_result":true,"my_hand":"h_0_0_0_1","opponent_hand":"h_0_0_3_0","win":false,"tie":false,"bet":0,"earnings":0,"expected_value":-0.9375,"expected_earnings":0,"bet_rt":2131,"block":1,"trial_type":"card_game","trial_index":19,"time_elapsed":677465,"internal_node_id":"0.0-19.0"},{"type":"card_game","game_type":"straight_flush","losers":false,"see_result":true,"my_hand":"h_1_1_2_0","opponent_hand":"h_3_1_0_1","win":true,"tie":false,"bet":1,"earnings":5,"expected_value":0.40625,"expected_earnings":2.03125,"bet_rt":1861,"block":1,"trial_type":"card_game","trial_index":20,"time_elapsed":680864,"internal_node_id":"0.0-20.0"},{"type":"card_game","game_type":"straight_flush","losers":false,"see_result":true,"my_hand":"h_1_0_1_1","opponent_hand":"h_1_0_0_0","win":false,"tie":false,"bet":0,"earnings":0,"expected_value":-0.8125,"expected_earnings":0,"bet_rt":2029,"block":1,"trial_type":"card_game","trial_index":21,"time_elapsed":684439,"internal_node_id":"0.0-21.0"},{"type":"card_game","game_type":"straight_flush","losers":false,"see_result":true,"my_hand":"h_1_0_1_0","opponent_hand":"h_2_1_2_0","win":false,"tie":false,"bet":0,"earnings":0,"expected_value":-0.859375,"expected_earnings":0,"bet_rt":3655,"block":1,"trial_type":"card_game","trial_index":22,"time_elapsed":689631,"internal_node_id":"0.0-22.0"},{"type":"card_game","game_type":"straight_flush","losers":false,"see_result":true,"my_hand":"h_1_0_0_0","opponent_hand":"h_0_1_3_0","win":true,"tie":false,"bet":1,"earnings":5,"expected_value":0.65625,"expected_earnings":3.28125,"bet_rt":4987,"block":1,"trial_type":"card_game","trial_index":23,"time_elapsed":696159,"internal_node_id":"0.0-23.0"},{"type":"card_game","game_type":"straight_flush","losers":false,"see_result":true,"my_hand":"h_0_0_2_0","opponent_hand":"h_1_0_3_0","win":false,"tie":false,"bet":0,"earnings":0,"expected_value":-0.71875,"expected_earnings":0,"bet_rt":2153,"block":1,"trial_type":"card_game","trial_index":24,"time_elapsed":699856,"internal_node_id":"0.0-24.0"},{"type":"card_game","game_type":"straight_flush","losers":false,"see_result":true,"my_hand":"h_0_0_2_1","opponent_hand":"h_2_0_2_1","win":false,"tie":false,"bet":0,"earnings":0,"expected_value":-0.59375,"expected_earnings":0,"bet_rt":1780,"block":1,"trial_type":"card_game","trial_index":25,"time_elapsed":703180,"internal_node_id":"0.0-25.0"},{"type":"card_game","game_type":"straight_flush","losers":false,"see_result":true,"my_hand":"h_3_1_0_1","opponent_hand":"h_2_1_0_1","win":true,"tie":false,"bet":0,"earnings":0,"expected_value":-0.15625,"expected_earnings":0,"bet_rt":1933,"block":1,"trial_type":"card_game","trial_index":26,"time_elapsed":706667,"internal_node_id":"0.0-26.0"},{"type":"card_game","game_type":"straight_flush","losers":false,"see_result":true,"my_hand":"h_2_1_3_1","opponent_hand":"h_1_1_1_0","win":true,"tie":false,"bet":2,"earnings":10,"expected_value":0.96875,"expected_earnings":9.6875,"bet_rt":2828,"block":1,"trial_type":"card_game","trial_index":27,"time_elapsed":711039,"internal_node_id":"0.0-27.0"},{"type":"card_game","game_type":"straight_flush","losers":false,"see_result":true,"my_hand":"h_2_0_1_0","opponent_hand":"h_2_0_0_0","win":true,"tie":false,"bet":2,"earnings":10,"expected_value":0.78125,"expected_earnings":7.8125,"bet_rt":2272,"block":1,"trial_type":"card_game","trial_index":28,"time_elapsed":714855,"internal_node_id":"0.0-28.0"},{"type":"card_game","game_type":"straight_flush","losers":false,"see_result":true,"my_hand":"h_1_0_2_0","opponent_hand":"h_3_0_0_1","win":true,"tie":false,"bet":2,"earnings":10,"expected_value":0.78125,"expected_earnings":7.8125,"bet_rt":1314,"block":1,"trial_type":"card_game","trial_index":29,"time_elapsed":717707,"internal_node_id":"0.0-29.0"},{"type":"card_game","game_type":"straight_flush","losers":false,"see_result":true,"my_hand":"h_3_1_1_0","opponent_hand":"h_1_1_1_1","win":true,"tie":false,"bet":0,"earnings":0,"expected_value":0.03125,"expected_earnings":0,"bet_rt":2059,"block":1,"trial_type":"card_game","trial_index":30,"time_elapsed":721325,"internal_node_id":"0.0-30.0"},{"type":"card_game","game_type":"straight_flush","losers":false,"see_result":true,"my_hand":"h_0_1_1_1","opponent_hand":"h_0_1_1_0","win":true,"tie":false,"bet":1,"earnings":5,"expected_value":0.71875,"expected_earnings":3.59375,"bet_rt":1539,"block":1,"trial_type":"card_game","trial_index":31,"time_elapsed":724406,"internal_node_id":"0.0-31.0"},{"type":"card_game","game_type":"straight_flush","losers":false,"see_result":true,"my_hand":"h_0_0_2_0","opponent_hand":"h_2_1_2_1","win":false,"tie":false,"bet":0,"earnings":0,"expected_value":-0.71875,"expected_earnings":0,"bet_rt":2403,"block":1,"trial_type":"card_game","trial_index":32,"time_elapsed":728350,"internal_node_id":"0.0-32.0"},{"type":"card_game","game_type":"straight_flush","losers":false,"see_result":true,"my_hand":"h_0_1_1_0","opponent_hand":"h_1_1_2_1","win":false,"tie":false,"bet":0,"earnings":0,"expected_value":0.28125,"expected_earnings":0,"bet_rt":4762,"block":1,"trial_type":"card_game","trial_index":33,"time_elapsed":734650,"internal_node_id":"0.0-33.0"},{"type":"card_game","game_type":"straight_flush","losers":false,"see_result":true,"my_hand":"h_2_0_2_1","opponent_hand":"h_0_1_1_0","win":false,"tie":false,"bet":0,"earnings":0,"expected_value":-0.4375,"expected_earnings":0,"bet_rt":1575,"block":1,"trial_type":"card_game","trial_index":34,"time_elapsed":737770,"internal_node_id":"0.0-34.0"},{"type":"card_game","game_type":"straight_flush","losers":false,"see_result":true,"my_hand":"h_1_1_3_1","opponent_hand":"h_2_0_2_0","win":true,"tie":false,"bet":1,"earnings":5,"expected_value":0.09375,"expected_earnings":0.46875,"bet_rt":2767,"block":1,"trial_type":"card_game","trial_index":35,"time_elapsed":742082,"internal_node_id":"0.0-35.0"},{"type":"card_game","game_type":"straight_flush","losers":false,"see_result":true,"my_hand":"h_0_0_3_1","opponent_hand":"h_1_0_3_1","win":false,"tie":false,"bet":0,"earnings":0,"expected_value":-0.21875,"expected_earnings":0,"bet_rt":1304,"block":1,"trial_type":"card_game","trial_index":36,"time_elapsed":744924,"internal_node_id":"0.0-36.0"},{"type":"card_game","game_type":"straight_flush","losers":false,"see_result":true,"my_hand":"h_2_1_2_1","opponent_hand":"h_1_0_3_0","win":false,"tie":false,"bet":0,"earnings":0,"expected_value":-0.390625,"expected_earnings":0,"bet_rt":1262,"block":1,"trial_type":"card_game","trial_index":37,"time_elapsed":747729,"internal_node_id":"0.0-37.0"},{"type":"card_game","game_type":"straight_flush","losers":false,"see_result":true,"my_hand":"h_3_1_3_1","opponent_hand":"h_3_0_2_0","win":false,"tie":false,"bet":0,"earnings":0,"expected_value":0.234375,"expected_earnings":0,"bet_rt":1584,"block":1,"trial_type":"card_game","trial_index":38,"time_elapsed":750873,"internal_node_id":"0.0-38.0"},{"rt":9891.55000000028,"stimulus":"<p>You earned a performance bonus of 90 cents on this set of trials, plus $1.50 for making it to this phase.</p><p>Press any key to continue.</p>","key_press":32,"trial_type":"html-keyboard-response","trial_index":39,"time_elapsed":760767,"internal_node_id":"0.0-39.0"},{"rt":24861.814999996568,"stimulus":"<p>To test how well you understand the game, we'll now give you a series of hands where you won't see your results after you bet. You will just see your earnings at the end of the set of hands.</p><p>Press any key to continue.</p>","key_press":32,"trial_type":"html-keyboard-response","trial_index":40,"time_elapsed":785629,"internal_node_id":"0.0-40.0"},{"type":"card_game","game_type":"straight_flush","losers":false,"see_result":false,"my_hand":"h_2_1_3_0","opponent_hand":"h_2_1_0_0","win":true,"tie":false,"bet":2,"earnings":10,"expected_value":0.53125,"expected_earnings":5.3125,"bet_rt":10655,"block":2,"trial_type":"card_game","trial_index":41,"time_elapsed":796786,"internal_node_id":"0.0-41.0"},{"type":"card_game","game_type":"straight_flush","losers":false,"see_result":false,"my_hand":"h_1_0_0_0","opponent_hand":"h_0_1_2_1","win":true,"tie":false,"bet":0,"earnings":0,"expected_value":0.65625,"expected_earnings":0,"bet_rt":6223,"block":2,"trial_type":"card_game","trial_index":42,"time_elapsed":803511,"internal_node_id":"0.0-42.0"},{"type":"card_game","game_type":"straight_flush","losers":false,"see_result":false,"my_hand":"h_1_0_2_1","opponent_hand":"h_0_0_0_1","win":true,"tie":false,"bet":1,"earnings":5,"expected_value":0.46875,"expected_earnings":2.34375,"bet_rt":7946,"block":2,"trial_type":"card_game","trial_index":43,"time_elapsed":811958,"internal_node_id":"0.0-43.0"},{"type":"card_game","game_type":"straight_flush","losers":false,"see_result":false,"my_hand":"h_0_1_1_0","opponent_hand":"h_3_1_2_1","win":false,"tie":false,"bet":0,"earnings":0,"expected_value":0.28125,"expected_earnings":0,"bet_rt":1890,"block":2,"trial_type":"card_game","trial_index":44,"time_elapsed":814350,"internal_node_id":"0.0-44.0"},{"type":"card_game","game_type":"straight_flush","losers":false,"see_result":false,"my_hand":"h_3_1_1_1","opponent_hand":"h_2_1_1_1","win":false,"tie":false,"bet":0,"earnings":0,"expected_value":0.09375,"expected_earnings":0,"bet_rt":2251,"block":2,"trial_type":"card_game","trial_index":45,"time_elapsed":817102,"internal_node_id":"0.0-45.0"},{"type":"card_game","game_type":"straight_flush","losers":false,"see_result":false,"my_hand":"h_0_1_0_1","opponent_hand":"h_2_1_0_1","win":false,"tie":false,"bet":0,"earnings":0,"expected_value":-0.890625,"expected_earnings":0,"bet_rt":1423,"block":2,"trial_type":"card_game","trial_index":46,"time_elapsed":819027,"internal_node_id":"0.0-46.0"},{"type":"card_game","game_type":"straight_flush","losers":false,"see_result":false,"my_hand":"h_3_1_3_0","opponent_hand":"h_0_0_1_0","win":false,"tie":false,"bet":0,"earnings":0,"expected_value":0.1875,"expected_earnings":0,"bet_rt":1599,"block":2,"trial_type":"card_game","trial_index":47,"time_elapsed":821127,"internal_node_id":"0.0-47.0"},{"type":"card_game","game_type":"straight_flush","losers":false,"see_result":false,"my_hand":"h_2_0_3_0","opponent_hand":"h_1_0_0_1","win":true,"tie":false,"bet":2,"earnings":10,"expected_value":0.90625,"expected_earnings":9.0625,"bet_rt":3305,"block":2,"trial_type":"card_game","trial_index":48,"time_elapsed":824934,"internal_node_id":"0.0-48.0"},{"type":"card_game","game_type":"straight_flush","losers":false,"see_result":false,"my_hand":"h_1_0_3_1","opponent_hand":"h_3_0_3_1","win":false,"tie":false,"bet":0,"earnings":0,"expected_value":0.03125,"expected_earnings":0,"bet_rt":1913,"block":2,"trial_type":"card_game","trial_index":49,"time_elapsed":827350,"internal_node_id":"0.0-49.0"},{"type":"card_game","game_type":"straight_flush","losers":false,"see_result":false,"my_hand":"h_0_0_0_0","opponent_hand":"h_0_0_1_0","win":false,"tie":false,"bet":0,"earnings":0,"expected_value":-0.984375,"expected_earnings":0,"bet_rt":832,"block":2,"trial_type":"card_game","trial_index":50,"time_elapsed":828683,"internal_node_id":"0.0-50.0"},{"type":"card_game","game_type":"straight_flush","losers":false,"see_result":false,"my_hand":"h_3_1_0_0","opponent_hand":"h_1_1_3_0","win":false,"tie":false,"bet":0,"earnings":0,"expected_value":-0.21875,"expected_earnings":0,"bet_rt":2802,"block":2,"trial_type":"card_game","trial_index":51,"time_elapsed":831987,"internal_node_id":"0.0-51.0"},{"type":"card_game","game_type":"straight_flush","losers":false,"see_result":false,"my_hand":"h_0_0_2_1","opponent_hand":"h_1_0_1_1","win":true,"tie":false,"bet":0,"earnings":0,"expected_value":-0.59375,"expected_earnings":0,"bet_rt":3070,"block":2,"trial_type":"card_game","trial_index":52,"time_elapsed":835560,"internal_node_id":"0.0-52.0"},{"type":"card_game","game_type":"straight_flush","losers":false,"see_result":false,"my_hand":"h_0_1_2_0","opponent_hand":"h_3_1_2_1","win":false,"tie":false,"bet":0,"earnings":0,"expected_value":-0.65625,"expected_earnings":0,"bet_rt":1252,"block":2,"trial_type":"card_game","trial_index":53,"time_elapsed":837315,"internal_node_id":"0.0-53.0"},{"type":"card_game","game_type":"straight_flush","losers":false,"see_result":false,"my_hand":"h_3_1_0_1","opponent_hand":"h_3_1_3_0","win":false,"tie":false,"bet":0,"earnings":0,"expected_value":-0.15625,"expected_earnings":0,"bet_rt":1395,"block":2,"trial_type":"card_game","trial_index":54,"time_elapsed":839211,"internal_node_id":"0.0-54.0"},{"type":"card_game","game_type":"straight_flush","losers":false,"see_result":false,"my_hand":"h_1_0_0_0","opponent_hand":"h_3_1_1_0","win":true,"tie":false,"bet":1,"earnings":5,"expected_value":0.65625,"expected_earnings":3.28125,"bet_rt":1929,"block":2,"trial_type":"card_game","trial_index":55,"time_elapsed":841642,"internal_node_id":"0.0-55.0"},{"type":"card_game","game_type":"straight_flush","losers":false,"see_result":false,"my_hand":"h_2_1_1_1","opponent_hand":"h_0_1_0_0","win":true,"tie":false,"bet":1,"earnings":5,"expected_value":0.84375,"expected_earnings":4.21875,"bet_rt":4048,"block":2,"trial_type":"card_game","trial_index":56,"time_elapsed":846191,"internal_node_id":"0.0-56.0"},{"type":"card_game","game_type":"straight_flush","losers":false,"see_result":false,"my_hand":"h_0_0_0_0","opponent_hand":"h_3_0_0_0","win":false,"tie":false,"bet":0,"earnings":0,"expected_value":-0.984375,"expected_earnings":0,"bet_rt":1274,"block":2,"trial_type":"card_game","trial_index":57,"time_elapsed":847965,"internal_node_id":"0.0-57.0"},{"type":"card_game","game_type":"straight_flush","losers":false,"see_result":false,"my_hand":"h_2_1_0_0","opponent_hand":"h_2_0_0_0","win":true,"tie":false,"bet":0,"earnings":0,"expected_value":-0.59375,"expected_earnings":0,"bet_rt":4321,"block":2,"trial_type":"card_game","trial_index":58,"time_elapsed":852790,"internal_node_id":"0.0-58.0"},{"type":"card_game","game_type":"straight_flush","losers":false,"see_result":false,"my_hand":"h_3_0_1_1","opponent_hand":"h_0_1_0_0","win":true,"tie":false,"bet":0,"earnings":0,"expected_value":-0.03125,"expected_earnings":0,"bet_rt":2231,"block":2,"trial_type":"card_game","trial_index":59,"time_elapsed":855528,"internal_node_id":"0.0-59.0"},{"type":"card_game","game_type":"straight_flush","losers":false,"see_result":false,"my_hand":"h_2_0_2_1","opponent_hand":"h_0_1_2_1","win":true,"tie":false,"bet":0,"earnings":0,"expected_value":-0.4375,"expected_earnings":0,"bet_rt":1108,"block":2,"trial_type":"card_game","trial_index":60,"time_elapsed":857139,"internal_node_id":"0.0-60.0"},{"type":"card_game","game_type":"straight_flush","losers":false,"see_result":false,"my_hand":"h_3_0_0_1","opponent_hand":"h_0_0_1_0","win":false,"tie":false,"bet":0,"earnings":0,"expected_value":-0.28125,"expected_earnings":0,"bet_rt":814,"block":2,"trial_type":"card_game","trial_index":61,"time_elapsed":858454,"internal_node_id":"0.0-61.0"},{"type":"card_game","game_type":"straight_flush","losers":false,"see_result":false,"my_hand":"h_2_0_1_1","opponent_hand":"h_3_1_3_1","win":true,"tie":false,"bet":2,"earnings":10,"expected_value":0.40625,"expected_earnings":4.0625,"bet_rt":1685,"block":2,"trial_type":"card_game","trial_index":62,"time_elapsed":860642,"internal_node_id":"0.0-62.0"},{"type":"card_game","game_type":"straight_flush","losers":false,"see_result":false,"my_hand":"h_3_1_2_1","opponent_hand":"h_0_1_3_1","win":true,"tie":false,"bet":2,"earnings":10,"expected_value":0.96875,"expected_earnings":9.6875,"bet_rt":1952,"block":2,"trial_type":"card_game","trial_index":63,"time_elapsed":863095,"internal_node_id":"0.0-63.0"},{"type":"card_game","game_type":"straight_flush","losers":false,"see_result":false,"my_hand":"h_2_0_2_0","opponent_hand":"h_1_0_2_1","win":false,"tie":false,"bet":0,"earnings":0,"expected_value":-0.484375,"expected_earnings":0,"bet_rt":1536,"block":2,"trial_type":"card_game","trial_index":64,"time_elapsed":865133,"internal_node_id":"0.0-64.0"},{"rt":18523.224999997183,"stimulus":"<p>You earned a performance bonus of 40 cents on this set of trials.</p><p>You have earned a performance bonus of 130 cents over the experiment so far, plus $1.50 for making it to this phase.</p><p>Press any key to continue.</p>","key_press":32,"trial_type":"html-keyboard-response","trial_index":65,"time_elapsed":883664,"internal_node_id":"0.0-65.0"},{"rt":20839.469999991707,"stimulus":"<p><font color='red'><b>Now, we want you to try to lose the game! For the remainder of the experiment, if you bet and lose, you'll gain the amount you bet, and if you bet and win, you'll lose the amount you bet.</b></font></p><p>As before, you won't win or lose anything if you tie your opponent, or if you don't bet.</p><p>Press any key to continue.</p>","key_press":32,"trial_type":"html-keyboard-response","trial_index":66,"time_elapsed":904504,"internal_node_id":"0.0-66.0"},{"rt":11304.999999993015,"responses":"{\"Q0\":\"Bet and my hand loses.\"}","question_order":"[0]","response_trial_type":"attention_check","trial_type":"survey-multi-choice","trial_index":67,"time_elapsed":915812,"internal_node_id":"0.0-67.0"},{"rt":42996.05499999598,"stimulus":"<p>Great, now you get to play a few hands!</p><p>As before, you won't see your results after you bet. You will just see your earnings at the end of the set of hands.</p><p>Press any key to continue.</p>","key_press":32,"trial_type":"html-keyboard-response","trial_index":68,"time_elapsed":958809,"internal_node_id":"0.0-68.0"},{"type":"card_game","game_type":"straight_flush","losers":true,"see_result":false,"my_hand":"h_2_1_3_1","opponent_hand":"h_1_1_2_0","win":false,"tie":false,"bet":0,"earnings":0,"expected_value":-0.96875,"expected_earnings":0,"bet_rt":3867,"block":3,"trial_type":"card_game","trial_index":69,"time_elapsed":963177,"internal_node_id":"0.0-69.0"},{"type":"card_game","game_type":"straight_flush","losers":true,"see_result":false,"my_hand":"h_1_1_2_0","opponent_hand":"h_1_0_3_1","win":false,"tie":false,"bet":0,"earnings":0,"expected_value":-0.40625,"expected_earnings":0,"bet_rt":2124,"block":3,"trial_type":"card_game","trial_index":70,"time_elapsed":965803,"internal_node_id":"0.0-70.0"},{"type":"card_game","game_type":"straight_flush","losers":true,"see_result":false,"my_hand":"h_1_1_0_0","opponent_hand":"h_0_0_1_0","win":true,"tie":false,"bet":0,"earnings":0,"expected_value":-0.34375,"expected_earnings":0,"bet_rt":2402,"block":3,"trial_type":"card_game","trial_index":71,"time_elapsed":968707,"internal_node_id":"0.0-71.0"},{"type":"card_game","game_type":"straight_flush","losers":true,"see_result":false,"my_hand":"h_2_0_2_0","opponent_hand":"h_0_1_1_1","win":true,"tie":false,"bet":2,"earnings":10,"expected_value":0.484375,"expected_earnings":4.84375,"bet_rt":2050,"block":3,"trial_type":"card_game","trial_index":72,"time_elapsed":971258,"internal_node_id":"0.0-72.0"},{"type":"card_game","game_type":"straight_flush","losers":true,"see_result":false,"my_hand":"h_2_1_0_0","opponent_hand":"h_3_1_0_1","win":true,"tie":false,"bet":2,"earnings":10,"expected_value":0.59375,"expected_earnings":5.9375,"bet_rt":1501,"block":3,"trial_type":"card_game","trial_index":73,"time_elapsed":973260,"internal_node_id":"0.0-73.0"},{"type":"card_game","game_type":"straight_flush","losers":true,"see_result":false,"my_hand":"h_0_1_0_0","opponent_hand":"h_0_1_0_1","win":true,"tie":false,"bet":2,"earnings":10,"expected_value":0.9375,"expected_earnings":9.375,"bet_rt":1758,"block":3,"trial_type":"card_game","trial_index":74,"time_elapsed":975520,"internal_node_id":"0.0-74.0"},{"type":"card_game","game_type":"straight_flush","losers":true,"see_result":false,"my_hand":"h_3_0_2_1","opponent_hand":"h_1_0_3_0","win":false,"tie":false,"bet":0,"earnings":0,"expected_value":-0.53125,"expected_earnings":0,"bet_rt":3059,"block":3,"trial_type":"card_game","trial_index":75,"time_elapsed":979079,"internal_node_id":"0.0-75.0"},{"type":"card_game","game_type":"straight_flush","losers":true,"see_result":false,"my_hand":"h_3_0_1_0","opponent_hand":"h_3_1_2_0","win":true,"tie":false,"bet":2,"earnings":10,"expected_value":0.09375,"expected_earnings":0.9375,"bet_rt":2168,"block":3,"trial_type":"card_game","trial_index":76,"time_elapsed":981749,"internal_node_id":"0.0-76.0"},{"type":"card_game","game_type":"straight_flush","losers":true,"see_result":false,"my_hand":"h_0_1_3_1","opponent_hand":"h_1_0_3_0","win":true,"tie":false,"bet":2,"earnings":10,"expected_value":0.15625,"expected_earnings":1.5625,"bet_rt":1416,"block":3,"trial_type":"card_game","trial_index":77,"time_elapsed":983666,"internal_node_id":"0.0-77.0"},{"type":"card_game","game_type":"straight_flush","losers":true,"see_result":false,"my_hand":"h_3_0_1_1","opponent_hand":"h_3_0_3_0","win":true,"tie":false,"bet":2,"earnings":10,"expected_value":0.03125,"expected_earnings":0.3125,"bet_rt":1821,"block":3,"trial_type":"card_game","trial_index":78,"time_elapsed":985989,"internal_node_id":"0.0-78.0"},{"type":"card_game","game_type":"straight_flush","losers":true,"see_result":false,"my_hand":"h_0_0_2_0","opponent_hand":"h_1_1_0_0","win":true,"tie":false,"bet":2,"earnings":10,"expected_value":0.71875,"expected_earnings":7.1875,"bet_rt":1393,"block":3,"trial_type":"card_game","trial_index":79,"time_elapsed":987883,"internal_node_id":"0.0-79.0"},{"type":"card_game","game_type":"straight_flush","losers":true,"see_result":false,"my_hand":"h_3_1_3_0","opponent_hand":"h_3_1_0_1","win":false,"tie":false,"bet":2,"earnings":-10,"expected_value":-0.1875,"expected_earnings":-1.875,"bet_rt":1957,"block":3,"trial_type":"card_game","trial_index":80,"time_elapsed":990342,"internal_node_id":"0.0-80.0"},{"type":"card_game","game_type":"straight_flush","losers":true,"see_result":false,"my_hand":"h_2_0_1_0","opponent_hand":"h_2_0_1_1","win":false,"tie":false,"bet":0,"earnings":0,"expected_value":-0.78125,"expected_earnings":0,"bet_rt":1748,"block":3,"trial_type":"card_game","trial_index":81,"time_elapsed":992592,"internal_node_id":"0.0-81.0"},{"type":"card_game","game_type":"straight_flush","losers":true,"see_result":false,"my_hand":"h_1_1_0_1","opponent_hand":"h_0_0_1_0","win":false,"tie":false,"bet":0,"earnings":0,"expected_value":-0.71875,"expected_earnings":0,"bet_rt":2196,"block":3,"trial_type":"card_game","trial_index":82,"time_elapsed":995289,"internal_node_id":"0.0-82.0"},{"type":"card_game","game_type":"straight_flush","losers":true,"see_result":false,"my_hand":"h_0_1_3_0","opponent_hand":"h_2_1_1_1","win":true,"tie":false,"bet":2,"earnings":10,"expected_value":0.28125,"expected_earnings":2.8125,"bet_rt":1581,"block":3,"trial_type":"card_game","trial_index":83,"time_elapsed":997372,"internal_node_id":"0.0-83.0"},{"type":"card_game","game_type":"straight_flush","losers":true,"see_result":false,"my_hand":"h_1_1_0_0","opponent_hand":"h_2_0_1_1","win":true,"tie":false,"bet":0,"earnings":0,"expected_value":-0.34375,"expected_earnings":0,"bet_rt":2053,"block":3,"trial_type":"card_game","trial_index":84,"time_elapsed":999925,"internal_node_id":"0.0-84.0"},{"type":"card_game","game_type":"straight_flush","losers":true,"see_result":false,"my_hand":"h_0_1_0_0","opponent_hand":"h_1_1_1_0","win":true,"tie":false,"bet":2,"earnings":10,"expected_value":0.9375,"expected_earnings":9.375,"bet_rt":1479,"block":3,"trial_type":"card_game","trial_index":85,"time_elapsed":1001906,"internal_node_id":"0.0-85.0"},{"type":"card_game","game_type":"straight_flush","losers":true,"see_result":false,"my_hand":"h_3_1_3_0","opponent_hand":"h_3_1_0_0","win":false,"tie":false,"bet":2,"earnings":-10,"expected_value":-0.1875,"expected_earnings":-1.875,"bet_rt":1118,"block":3,"trial_type":"card_game","trial_index":86,"time_elapsed":1003526,"internal_node_id":"0.0-86.0"},{"type":"card_game","game_type":"straight_flush","losers":true,"see_result":false,"my_hand":"h_0_0_0_1","opponent_hand":"h_0_1_1_0","win":true,"tie":false,"bet":2,"earnings":10,"expected_value":0.9375,"expected_earnings":9.375,"bet_rt":916,"block":3,"trial_type":"card_game","trial_index":87,"time_elapsed":1004944,"internal_node_id":"0.0-87.0"},{"type":"card_game","game_type":"straight_flush","losers":true,"see_result":false,"my_hand":"h_2_0_0_0","opponent_hand":"h_2_0_2_1","win":true,"tie":false,"bet":2,"earnings":10,"expected_value":0.71875,"expected_earnings":7.1875,"bet_rt":991,"block":3,"trial_type":"card_game","trial_index":88,"time_elapsed":1006435,"internal_node_id":"0.0-88.0"},{"type":"card_game","game_type":"straight_flush","losers":true,"see_result":false,"my_hand":"h_3_1_3_0","opponent_hand":"h_3_1_3_1","win":true,"tie":false,"bet":2,"earnings":10,"expected_value":-0.1875,"expected_earnings":-1.875,"bet_rt":1002,"block":3,"trial_type":"card_game","trial_index":89,"time_elapsed":1007939,"internal_node_id":"0.0-89.0"},{"type":"card_game","game_type":"straight_flush","losers":true,"see_result":false,"my_hand":"h_0_1_3_0","opponent_hand":"h_2_0_1_1","win":true,"tie":false,"bet":2,"earnings":10,"expected_value":0.28125,"expected_earnings":2.8125,"bet_rt":1072,"block":3,"trial_type":"card_game","trial_index":90,"time_elapsed":1009513,"internal_node_id":"0.0-90.0"},{"type":"card_game","game_type":"straight_flush","losers":true,"see_result":false,"my_hand":"h_2_1_3_1","opponent_hand":"h_2_0_1_0","win":false,"tie":false,"bet":0,"earnings":0,"expected_value":-0.96875,"expected_earnings":0,"bet_rt":1807,"block":3,"trial_type":"card_game","trial_index":91,"time_elapsed":1011821,"internal_node_id":"0.0-91.0"},{"type":"card_game","game_type":"straight_flush","losers":true,"see_result":false,"my_hand":"h_0_1_1_1","opponent_hand":"h_1_0_0_0","win":false,"tie":false,"bet":0,"earnings":0,"expected_value":-0.71875,"expected_earnings":0,"bet_rt":1181,"block":3,"trial_type":"card_game","trial_index":92,"time_elapsed":1013504,"internal_node_id":"0.0-92.0"},{"rt":6545.7150000002,"stimulus":"<p>You earned a performance bonus of 60 cents on this set of trials.</p><p>You have earned a performance bonus of 190 cents over the experiment so far, plus $1.50 for making it to this phase.</p><p>Press any key to continue.</p>","key_press":32,"trial_type":"html-keyboard-response","trial_index":93,"time_elapsed":1020050,"internal_node_id":"0.0-93.0"},{"rt":4302.59500000102,"stimulus":"<p>Great, we just have a few questions to ask you and then you'll be finished!</p><p>Press any key to continue.</p>","key_press":32,"trial_type":"html-keyboard-response","trial_index":94,"time_elapsed":1024354,"internal_node_id":"0.0-94.0"},{"rt":19565.8650000114,"responses":"{\"Q0\":4,\"Q1\":3,\"Q2\":3}","question_order":"[0,1,2]","response_trial_type":"debrief","trial_type":"survey-likert","trial_index":95,"time_elapsed":1043922,"internal_node_id":"0.0-95.0"},{"rt":16604.47000000556,"responses":"{\"Q0\":\"35-45\",\"Q1\":\"High school degree or GED\",\"Q2\":\"Male\",\"Q3\":\"White\"}","question_order":"[0,1,2,3]","response_trial_type":"demographics","trial_type":"survey-multi-choice","trial_index":96,"time_elapsed":1060530,"internal_node_id":"0.0-96.0"},{"rt":9007.484999994515,"responses":"{\"Q0\":\"fun!\"}","response_trial_type":"comments","trial_type":"survey-text","trial_index":97,"time_elapsed":1069550,"internal_node_id":"0.0-97.0"}]