[{"view_history":"[{\"page_index\":0,\"viewing_time\":18534.184999996796},{\"page_index\":1,\"viewing_time\":15951.590000011493},{\"page_index\":2,\"viewing_time\":17559.720000019297},{\"page_index\":3,\"viewing_time\":27118.205000006128},{\"page_index\":4,\"viewing_time\":48082.044999988284},{\"page_index\":5,\"viewing_time\":8192.365000024438},{\"page_index\":6,\"viewing_time\":14887.664999987464}]","rt":150326.80000003893,"trial_type":"instructions","trial_index":0,"time_elapsed":150334,"internal_node_id":"0.0-0.0"},{"type":"hand_comparison","hand_win":"h_1_0_2_1","hand_lose":"h_3_0_0_0","explanation":"Adjacent cards beat non-adjacent.","hand_indices":[0,1],"hand_choice":0,"correct":true,"rt":7876,"trial_type":"hand_comparison","trial_index":1,"time_elapsed":160220,"internal_node_id":"0.0-1.0"},{"type":"hand_comparison","hand_win":"h_0_0_1_0","hand_lose":"h_3_0_2_1","explanation":"Same-suit adjacent beats different suit.","hand_indices":[1,0],"hand_choice":1,"correct":true,"rt":11156,"trial_type":"hand_comparison","trial_index":2,"time_elapsed":173378,"internal_node_id":"0.0-2.0"},{"type":"hand_comparison","hand_win":"h_3_0_0_1","hand_lose":"h_2_0_2_1","explanation":"Highest card breaks ties.","hand_indices":[0,1],"hand_choice":0,"correct":true,"rt":15582,"trial_type":"hand_comparison","trial_index":3,"time_elapsed":190965,"internal_node_id":"0.0-3.0"},{"type":"hand_comparison","hand_win":"h_3_1_2_1","hand_lose":"h_2_0_3_0","explanation":"Black cards beat red cards if the numbers are tied.","hand_indices":[0,1],"hand_choice":0,"correct":true,"rt":2638,"trial_type":"hand_comparison","trial_index":4,"time_elapsed":195607,"internal_node_id":"0.0-4.0"},{"rt":7158.700000029057,"stimulus":"<p><b>Congratulations, you passed the test, and will get to proceed to phase 2!</b></p><p>You have earned a $1.50 bonus, and will be awarded a performance bonus based on your bets in the next phase.</p><p>Press any key to continue.</p>","key_press":32,"trial_type":"html-keyboard-response","trial_index":5,"time_elapsed":202769,"internal_node_id":"0.0-5.0"},{"rt":2897.9399999952875,"stimulus":"<p>Now you get to play a few hands. After you bet, we'll show you your opponent's hand and how much you won (or lost), and at the end of these hands we'll tell you your total earnings.</p><p>Press any key to continue.</p>","key_press":77,"trial_type":"html-keyboard-response","trial_index":6,"time_elapsed":205668,"internal_node_id":"0.0-6.0"},{"type":"card_game","game_type":"straight_flush","losers":false,"see_result":true,"my_hand":"h_2_1_3_0","opponent_hand":"h_2_1_2_1","win":true,"tie":false,"bet":2,"earnings":10,"expected_value":0.53125,"expected_earnings":5.3125,"bet_rt":9217,"block":1,"trial_type":"card_game","trial_index":7,"time_elapsed":216596,"internal_node_id":"0.0-7.0"},{"type":"card_game","game_type":"straight_flush","losers":false,"see_result":true,"my_hand":"h_1_0_2_1","opponent_hand":"h_0_0_1_1","win":true,"tie":false,"bet":2,"earnings":10,"expected_value":0.46875,"expected_earnings":4.6875,"bet_rt":2173,"block":1,"trial_type":"card_game","trial_index":8,"time_elapsed":220389,"internal_node_id":"0.0-8.0"},{"type":"card_game","game_type":"straight_flush","losers":false,"see_result":true,"my_hand":"h_3_0_0_0","opponent_hand":"h_0_1_3_0","win":false,"tie":false,"bet":0,"earnings":0,"expected_value":-0.34375,"expected_earnings":0,"bet_rt":9170,"block":1,"trial_type":"card_game","trial_index":9,"time_elapsed":231169,"internal_node_id":"0.0-9.0"},{"type":"card_game","game_type":"straight_flush","losers":false,"see_result":true,"my_hand":"h_2_0_2_0","opponent_hand":"h_0_0_0_1","win":true,"tie":false,"bet":0,"earnings":0,"expected_value":-0.484375,"expected_earnings":0,"bet_rt":2713,"block":1,"trial_type":"card_game","trial_index":10,"time_elapsed":235505,"internal_node_id":"0.0-10.0"},{"type":"card_game","game_type":"straight_flush","losers":false,"see_result":true,"my_hand":"h_1_0_1_1","opponent_hand":"h_0_1_1_1","win":false,"tie":false,"bet":0,"earnings":0,"expected_value":-0.8125,"expected_earnings":0,"bet_rt":2196,"block":1,"trial_type":"card_game","trial_index":11,"time_elapsed":239302,"internal_node_id":"0.0-11.0"},{"type":"card_game","game_type":"straight_flush","losers":false,"see_result":true,"my_hand":"h_1_1_0_1","opponent_hand":"h_3_0_0_1","win":true,"tie":false,"bet":1,"earnings":5,"expected_value":0.71875,"expected_earnings":3.59375,"bet_rt":2051,"block":1,"trial_type":"card_game","trial_index":12,"time_elapsed":242970,"internal_node_id":"0.0-12.0"},{"type":"card_game","game_type":"straight_flush","losers":false,"see_result":true,"my_hand":"h_3_1_1_0","opponent_hand":"h_1_0_2_1","win":false,"tie":false,"bet":0,"earnings":0,"expected_value":0.03125,"expected_earnings":0,"bet_rt":3998,"block":1,"trial_type":"card_game","trial_index":13,"time_elapsed":248619,"internal_node_id":"0.0-13.0"},{"type":"card_game","game_type":"straight_flush","losers":false,"see_result":true,"my_hand":"h_3_1_2_1","opponent_hand":"h_1_0_1_1","win":true,"tie":false,"bet":2,"earnings":10,"expected_value":0.96875,"expected_earnings":9.6875,"bet_rt":3288,"block":1,"trial_type":"card_game","trial_index":14,"time_elapsed":253495,"internal_node_id":"0.0-14.0"},{"type":"card_game","game_type":"straight_flush","losers":false,"see_result":true,"my_hand":"h_0_0_0_1","opponent_hand":"h_1_1_3_1","win":false,"tie":false,"bet":0,"earnings":0,"expected_value":-0.9375,"expected_earnings":0,"bet_rt":2506,"block":1,"trial_type":"card_game","trial_index":15,"time_elapsed":257600,"internal_node_id":"0.0-15.0"},{"type":"card_game","game_type":"straight_flush","losers":false,"see_result":true,"my_hand":"h_1_1_1_1","opponent_hand":"h_2_1_0_1","win":false,"tie":false,"bet":0,"earnings":0,"expected_value":-0.765625,"expected_earnings":0,"bet_rt":3410,"block":1,"trial_type":"card_game","trial_index":16,"time_elapsed":262607,"internal_node_id":"0.0-16.0"},{"type":"card_game","game_type":"straight_flush","losers":false,"see_result":true,"my_hand":"h_0_1_3_0","opponent_hand":"h_3_1_3_1","win":false,"tie":false,"bet":0,"earnings":0,"expected_value":-0.28125,"expected_earnings":0,"bet_rt":1981,"block":1,"trial_type":"card_game","trial_index":17,"time_elapsed":266190,"internal_node_id":"0.0-17.0"},{"type":"card_game","game_type":"straight_flush","losers":false,"see_result":true,"my_hand":"h_3_1_3_0","opponent_hand":"h_0_1_0_0","win":true,"tie":false,"bet":0,"earnings":0,"expected_value":0.1875,"expected_earnings":0,"bet_rt":2147,"block":1,"trial_type":"card_game","trial_index":18,"time_elapsed":269932,"internal_node_id":"0.0-18.0"},{"type":"card_game","game_type":"straight_flush","losers":false,"see_result":true,"my_hand":"h_2_0_0_1","opponent_hand":"h_2_0_0_0","win":true,"tie":false,"bet":0,"earnings":0,"expected_value":-0.65625,"expected_earnings":0,"bet_rt":2675,"block":1,"trial_type":"card_game","trial_index":19,"time_elapsed":274234,"internal_node_id":"0.0-19.0"},{"type":"card_game","game_type":"straight_flush","losers":false,"see_result":true,"my_hand":"h_1_1_2_1","opponent_hand":"h_2_1_1_1","win":false,"tie":true,"bet":2,"earnings":0,"expected_value":0.84375,"expected_earnings":8.4375,"bet_rt":2586,"block":1,"trial_type":"card_game","trial_index":20,"time_elapsed":278417,"internal_node_id":"0.0-20.0"},{"type":"card_game","game_type":"straight_flush","losers":false,"see_result":true,"my_hand":"h_2_1_0_0","opponent_hand":"h_3_1_3_0","win":false,"tie":false,"bet":0,"earnings":0,"expected_value":-0.59375,"expected_earnings":0,"bet_rt":2194,"block":1,"trial_type":"card_game","trial_index":21,"time_elapsed":282221,"internal_node_id":"0.0-21.0"},{"type":"card_game","game_type":"straight_flush","losers":false,"see_result":true,"my_hand":"h_2_1_3_0","opponent_hand":"h_0_1_1_1","win":false,"tie":false,"bet":1,"earnings":-5,"expected_value":0.53125,"expected_earnings":2.65625,"bet_rt":2202,"block":1,"trial_type":"card_game","trial_index":22,"time_elapsed":286016,"internal_node_id":"0.0-22.0"},{"type":"card_game","game_type":"straight_flush","losers":false,"see_result":true,"my_hand":"h_1_1_0_0","opponent_hand":"h_1_1_1_0","win":true,"tie":false,"bet":1,"earnings":5,"expected_value":0.34375,"expected_earnings":1.71875,"bet_rt":6392,"block":1,"trial_type":"card_game","trial_index":23,"time_elapsed":294034,"internal_node_id":"0.0-23.0"},{"type":"card_game","game_type":"straight_flush","losers":false,"see_result":true,"my_hand":"h_0_1_3_1","opponent_hand":"h_3_1_2_1","win":false,"tie":false,"bet":0,"earnings":0,"expected_value":-0.15625,"expected_earnings":0,"bet_rt":6450,"block":1,"trial_type":"card_game","trial_index":24,"time_elapsed":302065,"internal_node_id":"0.0-24.0"},{"type":"card_game","game_type":"straight_flush","losers":false,"see_result":true,"my_hand":"h_0_1_3_1","opponent_hand":"h_1_0_2_0","win":false,"tie":false,"bet":0,"earnings":0,"expected_value":-0.15625,"expected_earnings":0,"bet_rt":2113,"block":1,"trial_type":"card_game","trial_index":25,"time_elapsed":305766,"internal_node_id":"0.0-25.0"},{"type":"card_game","game_type":"straight_flush","losers":false,"see_result":true,"my_hand":"h_3_0_1_0","opponent_hand":"h_0_0_2_0","win":true,"tie":false,"bet":0,"earnings":0,"expected_value":-0.09375,"expected_earnings":0,"bet_rt":1312,"block":1,"trial_type":"card_game","trial_index":26,"time_elapsed":308719,"internal_node_id":"0.0-26.0"},{"type":"card_game","game_type":"straight_flush","losers":false,"see_result":true,"my_hand":"h_0_0_1_1","opponent_hand":"h_3_0_1_0","win":true,"tie":false,"bet":1,"earnings":5,"expected_value":0.34375,"expected_earnings":1.71875,"bet_rt":6402,"block":1,"trial_type":"card_game","trial_index":27,"time_elapsed":316710,"internal_node_id":"0.0-27.0"},{"type":"card_game","game_type":"straight_flush","losers":false,"see_result":true,"my_hand":"h_3_1_1_0","opponent_hand":"h_0_1_3_1","win":true,"tie":false,"bet":0,"earnings":0,"expected_value":0.03125,"expected_earnings":0,"bet_rt":1878,"block":1,"trial_type":"card_game","trial_index":28,"time_elapsed":320149,"internal_node_id":"0.0-28.0"},{"type":"card_game","game_type":"straight_flush","losers":false,"see_result":true,"my_hand":"h_0_1_0_1","opponent_hand":"h_0_1_2_1","win":false,"tie":false,"bet":0,"earnings":0,"expected_value":-0.890625,"expected_earnings":0,"bet_rt":1345,"block":1,"trial_type":"card_game","trial_index":29,"time_elapsed":323063,"internal_node_id":"0.0-29.0"},{"type":"card_game","game_type":"straight_flush","losers":false,"see_result":true,"my_hand":"h_1_1_0_1","opponent_hand":"h_1_0_0_0","win":true,"tie":false,"bet":1,"earnings":5,"expected_value":0.71875,"expected_earnings":3.59375,"bet_rt":1797,"block":1,"trial_type":"card_game","trial_index":30,"time_elapsed":326432,"internal_node_id":"0.0-30.0"},{"type":"card_game","game_type":"straight_flush","losers":false,"see_result":true,"my_hand":"h_2_0_3_0","opponent_hand":"h_1_1_3_1","win":true,"tie":false,"bet":2,"earnings":10,"expected_value":0.90625,"expected_earnings":9.0625,"bet_rt":2685,"block":1,"trial_type":"card_game","trial_index":31,"time_elapsed":330687,"internal_node_id":"0.0-31.0"},{"type":"card_game","game_type":"straight_flush","losers":false,"see_result":true,"my_hand":"h_2_1_2_0","opponent_hand":"h_3_0_1_0","win":false,"tie":false,"bet":0,"earnings":0,"expected_value":-0.4375,"expected_earnings":0,"bet_rt":1416,"block":1,"trial_type":"card_game","trial_index":32,"time_elapsed":333653,"internal_node_id":"0.0-32.0"},{"type":"card_game","game_type":"straight_flush","losers":false,"see_result":true,"my_hand":"h_1_0_2_1","opponent_hand":"h_3_1_1_1","win":true,"tie":false,"bet":1,"earnings":5,"expected_value":0.46875,"expected_earnings":2.34375,"bet_rt":1909,"block":1,"trial_type":"card_game","trial_index":33,"time_elapsed":337122,"internal_node_id":"0.0-33.0"},{"type":"card_game","game_type":"straight_flush","losers":false,"see_result":true,"my_hand":"h_1_0_3_0","opponent_hand":"h_0_1_2_0","win":true,"tie":false,"bet":0,"earnings":0,"expected_value":-0.09375,"expected_earnings":0,"bet_rt":1666,"block":1,"trial_type":"card_game","trial_index":34,"time_elapsed":340355,"internal_node_id":"0.0-34.0"},{"type":"card_game","game_type":"straight_flush","losers":false,"see_result":true,"my_hand":"h_0_1_2_1","opponent_hand":"h_3_1_2_0","win":false,"tie":false,"bet":0,"earnings":0,"expected_value":-0.53125,"expected_earnings":0,"bet_rt":1418,"block":1,"trial_type":"card_game","trial_index":35,"time_elapsed":343315,"internal_node_id":"0.0-35.0"},{"type":"card_game","game_type":"straight_flush","losers":false,"see_result":true,"my_hand":"h_1_1_2_1","opponent_hand":"h_3_0_3_0","win":true,"tie":false,"bet":1,"earnings":5,"expected_value":0.84375,"expected_earnings":4.21875,"bet_rt":1938,"block":1,"trial_type":"card_game","trial_index":36,"time_elapsed":346827,"internal_node_id":"0.0-36.0"},{"type":"card_game","game_type":"straight_flush","losers":false,"see_result":true,"my_hand":"h_2_0_0_0","opponent_hand":"h_0_0_0_1","win":true,"tie":false,"bet":0,"earnings":0,"expected_value":-0.71875,"expected_earnings":0,"bet_rt":1914,"block":1,"trial_type":"card_game","trial_index":37,"time_elapsed":350318,"internal_node_id":"0.0-37.0"},{"type":"card_game","game_type":"straight_flush","losers":false,"see_result":true,"my_hand":"h_3_1_3_1","opponent_hand":"h_2_1_1_0","win":false,"tie":false,"bet":0,"earnings":0,"expected_value":0.234375,"expected_earnings":0,"bet_rt":1594,"block":1,"trial_type":"card_game","trial_index":38,"time_elapsed":353462,"internal_node_id":"0.0-38.0"},{"rt":6553.8999999989755,"stimulus":"<p>You earned a performance bonus of 65 cents on this set of trials, plus $1.50 for making it to this phase.</p><p>Press any key to continue.</p>","key_press":222,"trial_type":"html-keyboard-response","trial_index":39,"time_elapsed":360018,"internal_node_id":"0.0-39.0"},{"rt":9547.610000008717,"stimulus":"<p>To test how well you understand the game, we'll now give you a series of hands where you won't see your results after you bet. You will just see your earnings at the end of the set of hands.</p><p>Press any key to continue.</p>","key_press":78,"trial_type":"html-keyboard-response","trial_index":40,"time_elapsed":369566,"internal_node_id":"0.0-40.0"},{"type":"card_game","game_type":"straight_flush","losers":false,"see_result":false,"my_hand":"h_3_1_1_1","opponent_hand":"h_0_1_1_0","win":false,"tie":false,"bet":0,"earnings":0,"expected_value":0.09375,"expected_earnings":0,"bet_rt":3494,"block":2,"trial_type":"card_game","trial_index":41,"time_elapsed":373563,"internal_node_id":"0.0-41.0"},{"type":"card_game","game_type":"straight_flush","losers":false,"see_result":false,"my_hand":"h_1_1_3_0","opponent_hand":"h_1_1_3_0","win":false,"tie":true,"bet":0,"earnings":0,"expected_value":-0.03125,"expected_earnings":0,"bet_rt":1404,"block":2,"trial_type":"card_game","trial_index":42,"time_elapsed":375469,"internal_node_id":"0.0-42.0"},{"type":"card_game","game_type":"straight_flush","losers":false,"see_result":false,"my_hand":"h_3_0_3_0","opponent_hand":"h_1_0_2_1","win":false,"tie":false,"bet":0,"earnings":0,"expected_value":0.140625,"expected_earnings":0,"bet_rt":1100,"block":2,"trial_type":"card_game","trial_index":43,"time_elapsed":377071,"internal_node_id":"0.0-43.0"},{"type":"card_game","game_type":"straight_flush","losers":false,"see_result":false,"my_hand":"h_2_1_2_0","opponent_hand":"h_1_1_0_1","win":false,"tie":false,"bet":0,"earnings":0,"expected_value":-0.4375,"expected_earnings":0,"bet_rt":1277,"block":2,"trial_type":"card_game","trial_index":44,"time_elapsed":378849,"internal_node_id":"0.0-44.0"},{"type":"card_game","game_type":"straight_flush","losers":false,"see_result":false,"my_hand":"h_1_1_0_1","opponent_hand":"h_2_1_3_1","win":false,"tie":false,"bet":1,"earnings":-5,"expected_value":0.71875,"expected_earnings":3.59375,"bet_rt":2603,"block":2,"trial_type":"card_game","trial_index":45,"time_elapsed":381954,"internal_node_id":"0.0-45.0"},{"type":"card_game","game_type":"straight_flush","losers":false,"see_result":false,"my_hand":"h_2_0_3_1","opponent_hand":"h_1_1_1_0","win":true,"tie":false,"bet":1,"earnings":5,"expected_value":0.59375,"expected_earnings":2.96875,"bet_rt":1528,"block":2,"trial_type":"card_game","trial_index":46,"time_elapsed":383984,"internal_node_id":"0.0-46.0"},{"type":"card_game","game_type":"straight_flush","losers":false,"see_result":false,"my_hand":"h_1_0_0_1","opponent_hand":"h_2_0_1_1","win":false,"tie":false,"bet":1,"earnings":-5,"expected_value":0.28125,"expected_earnings":1.40625,"bet_rt":2338,"block":2,"trial_type":"card_game","trial_index":47,"time_elapsed":386824,"internal_node_id":"0.0-47.0"},{"type":"card_game","game_type":"straight_flush","losers":false,"see_result":false,"my_hand":"h_1_1_1_0","opponent_hand":"h_0_0_1_1","win":false,"tie":false,"bet":0,"earnings":0,"expected_value":-0.8125,"expected_earnings":0,"bet_rt":1516,"block":2,"trial_type":"card_game","trial_index":48,"time_elapsed":388841,"internal_node_id":"0.0-48.0"},{"type":"card_game","game_type":"straight_flush","losers":false,"see_result":false,"my_hand":"h_1_1_2_1","opponent_hand":"h_3_0_0_1","win":true,"tie":false,"bet":2,"earnings":10,"expected_value":0.84375,"expected_earnings":8.4375,"bet_rt":1548,"block":2,"trial_type":"card_game","trial_index":49,"time_elapsed":390891,"internal_node_id":"0.0-49.0"},{"type":"card_game","game_type":"straight_flush","losers":false,"see_result":false,"my_hand":"h_1_0_3_1","opponent_hand":"h_1_1_1_0","win":true,"tie":false,"bet":0,"earnings":0,"expected_value":0.03125,"expected_earnings":0,"bet_rt":1327,"block":2,"trial_type":"card_game","trial_index":50,"time_elapsed":392720,"internal_node_id":"0.0-50.0"},{"type":"card_game","game_type":"straight_flush","losers":false,"see_result":false,"my_hand":"h_0_1_2_1","opponent_hand":"h_0_1_0_0","win":true,"tie":false,"bet":0,"earnings":0,"expected_value":-0.53125,"expected_earnings":0,"bet_rt":1181,"block":2,"trial_type":"card_game","trial_index":51,"time_elapsed":394402,"internal_node_id":"0.0-51.0"},{"type":"card_game","game_type":"straight_flush","losers":false,"see_result":false,"my_hand":"h_3_0_0_1","opponent_hand":"h_1_1_3_1","win":false,"tie":false,"bet":0,"earnings":0,"expected_value":-0.28125,"expected_earnings":0,"bet_rt":1053,"block":2,"trial_type":"card_game","trial_index":52,"time_elapsed":395956,"internal_node_id":"0.0-52.0"},{"type":"card_game","game_type":"straight_flush","losers":false,"see_result":false,"my_hand":"h_2_0_1_1","opponent_hand":"h_0_1_2_0","win":true,"tie":false,"bet":1,"earnings":5,"expected_value":0.40625,"expected_earnings":2.03125,"bet_rt":1303,"block":2,"trial_type":"card_game","trial_index":53,"time_elapsed":397760,"internal_node_id":"0.0-53.0"},{"type":"card_game","game_type":"straight_flush","losers":false,"see_result":false,"my_hand":"h_0_1_2_1","opponent_hand":"h_0_0_2_1","win":true,"tie":false,"bet":0,"earnings":0,"expected_value":-0.53125,"expected_earnings":0,"bet_rt":1100,"block":2,"trial_type":"card_game","trial_index":54,"time_elapsed":399362,"internal_node_id":"0.0-54.0"},{"type":"card_game","game_type":"straight_flush","losers":false,"see_result":false,"my_hand":"h_1_1_0_0","opponent_hand":"h_3_0_1_0","win":true,"tie":false,"bet":1,"earnings":5,"expected_value":0.34375,"expected_earnings":1.71875,"bet_rt":1467,"block":2,"trial_type":"card_game","trial_index":55,"time_elapsed":401331,"internal_node_id":"0.0-55.0"},{"type":"card_game","game_type":"straight_flush","losers":false,"see_result":false,"my_hand":"h_1_0_1_0","opponent_hand":"h_2_0_1_1","win":false,"tie":false,"bet":0,"earnings":0,"expected_value":-0.859375,"expected_earnings":0,"bet_rt":1149,"block":2,"trial_type":"card_game","trial_index":56,"time_elapsed":402983,"internal_node_id":"0.0-56.0"},{"type":"card_game","game_type":"straight_flush","losers":false,"see_result":false,"my_hand":"h_0_0_3_0","opponent_hand":"h_1_0_0_1","win":false,"tie":false,"bet":0,"earnings":0,"expected_value":-0.34375,"expected_earnings":0,"bet_rt":2522,"block":2,"trial_type":"card_game","trial_index":57,"time_elapsed":406006,"internal_node_id":"0.0-57.0"},{"type":"card_game","game_type":"straight_flush","losers":false,"see_result":false,"my_hand":"h_2_1_1_1","opponent_hand":"h_3_1_3_0","win":true,"tie":false,"bet":1,"earnings":5,"expected_value":0.84375,"expected_earnings":4.21875,"bet_rt":1320,"block":2,"trial_type":"card_game","trial_index":58,"time_elapsed":407827,"internal_node_id":"0.0-58.0"},{"type":"card_game","game_type":"straight_flush","losers":false,"see_result":false,"my_hand":"h_0_0_1_0","opponent_hand":"h_0_0_1_0","win":false,"tie":true,"bet":1,"earnings":0,"expected_value":0.65625,"expected_earnings":3.28125,"bet_rt":2167,"block":2,"trial_type":"card_game","trial_index":59,"time_elapsed":410494,"internal_node_id":"0.0-59.0"},{"type":"card_game","game_type":"straight_flush","losers":false,"see_result":false,"my_hand":"h_1_0_1_1","opponent_hand":"h_3_1_2_1","win":false,"tie":false,"bet":0,"earnings":0,"expected_value":-0.8125,"expected_earnings":0,"bet_rt":1191,"block":2,"trial_type":"card_game","trial_index":60,"time_elapsed":412189,"internal_node_id":"0.0-60.0"},{"type":"card_game","game_type":"straight_flush","losers":false,"see_result":false,"my_hand":"h_2_0_0_1","opponent_hand":"h_0_0_0_1","win":true,"tie":false,"bet":0,"earnings":0,"expected_value":-0.65625,"expected_earnings":0,"bet_rt":787,"block":2,"trial_type":"card_game","trial_index":61,"time_elapsed":413477,"internal_node_id":"0.0-61.0"},{"type":"card_game","game_type":"straight_flush","losers":false,"see_result":false,"my_hand":"h_1_1_3_0","opponent_hand":"h_1_1_3_1","win":false,"tie":false,"bet":0,"earnings":0,"expected_value":-0.03125,"expected_earnings":0,"bet_rt":827,"block":2,"trial_type":"card_game","trial_index":62,"time_elapsed":414806,"internal_node_id":"0.0-62.0"},{"type":"card_game","game_type":"straight_flush","losers":false,"see_result":false,"my_hand":"h_1_1_2_1","opponent_hand":"h_2_1_0_0","win":true,"tie":false,"bet":1,"earnings":5,"expected_value":0.84375,"expected_earnings":4.21875,"bet_rt":974,"block":2,"trial_type":"card_game","trial_index":63,"time_elapsed":416280,"internal_node_id":"0.0-63.0"},{"type":"card_game","game_type":"straight_flush","losers":false,"see_result":false,"my_hand":"h_1_0_3_0","opponent_hand":"h_0_0_2_1","win":true,"tie":false,"bet":0,"earnings":0,"expected_value":-0.09375,"expected_earnings":0,"bet_rt":1173,"block":2,"trial_type":"card_game","trial_index":64,"time_elapsed":417955,"internal_node_id":"0.0-64.0"},{"rt":7256.540000031237,"stimulus":"<p>You earned a performance bonus of 30 cents on this set of trials.</p><p>You have earned a performance bonus of 95 cents over the experiment so far, plus $1.50 for making it to this phase.</p><p>Press any key to continue.</p>","key_press":72,"trial_type":"html-keyboard-response","trial_index":65,"time_elapsed":425224,"internal_node_id":"0.0-65.0"},{"rt":12588.059999980032,"stimulus":"<p><font color='red'><b>Now, we want you to try to lose the game! For the remainder of the experiment, if you bet and lose, you'll gain the amount you bet, and if you bet and win, you'll lose the amount you bet.</b></font></p><p>As before, you won't win or lose anything if you tie your opponent, or if you don't bet.</p><p>Press any key to continue.</p>","key_press":32,"trial_type":"html-keyboard-response","trial_index":66,"time_elapsed":437812,"internal_node_id":"0.0-66.0"},{"rt":7516.025000018999,"responses":"{\"Q0\":\"Bet and my hand loses.\"}","question_order":"[0]","response_trial_type":"attention_check","trial_type":"survey-multi-choice","trial_index":67,"time_elapsed":445332,"internal_node_id":"0.0-67.0"},{"rt":6568.489999976009,"stimulus":"<p>Great, now you get to play a few hands!</p><p>As before, you won't see your results after you bet. You will just see your earnings at the end of the set of hands.</p><p>Press any key to continue.</p>","key_press":32,"trial_type":"html-keyboard-response","trial_index":68,"time_elapsed":451902,"internal_node_id":"0.0-68.0"},{"type":"card_game","game_type":"straight_flush","losers":true,"see_result":false,"my_hand":"h_1_0_1_1","opponent_hand":"h_0_1_3_0","win":true,"tie":false,"bet":2,"earnings":10,"expected_value":0.8125,"expected_earnings":8.125,"bet_rt":2252,"block":3,"trial_type":"card_game","trial_index":69,"time_elapsed":454655,"internal_node_id":"0.0-69.0"},{"type":"card_game","game_type":"straight_flush","losers":true,"see_result":false,"my_hand":"h_1_1_0_0","opponent_hand":"h_0_1_0_1","win":false,"tie":false,"bet":0,"earnings":0,"expected_value":-0.34375,"expected_earnings":0,"bet_rt":2079,"block":3,"trial_type":"card_game","trial_index":70,"time_elapsed":457235,"internal_node_id":"0.0-70.0"},{"type":"card_game","game_type":"straight_flush","losers":true,"see_result":false,"my_hand":"h_0_1_2_1","opponent_hand":"h_1_0_2_1","win":true,"tie":false,"bet":1,"earnings":5,"expected_value":0.53125,"expected_earnings":2.65625,"bet_rt":2342,"block":3,"trial_type":"card_game","trial_index":71,"time_elapsed":460079,"internal_node_id":"0.0-71.0"},{"type":"card_game","game_type":"straight_flush","losers":true,"see_result":false,"my_hand":"h_2_0_0_0","opponent_hand":"h_0_1_3_1","win":true,"tie":false,"bet":1,"earnings":5,"expected_value":0.71875,"expected_earnings":3.59375,"bet_rt":1280,"block":3,"trial_type":"card_game","trial_index":72,"time_elapsed":461860,"internal_node_id":"0.0-72.0"},{"type":"card_game","game_type":"straight_flush","losers":true,"see_result":false,"my_hand":"h_2_1_3_1","opponent_hand":"h_1_1_3_0","win":false,"tie":false,"bet":0,"earnings":0,"expected_value":-0.96875,"expected_earnings":0,"bet_rt":1590,"block":3,"trial_type":"card_game","trial_index":73,"time_elapsed":463951,"internal_node_id":"0.0-73.0"},{"type":"card_game","game_type":"straight_flush","losers":true,"see_result":false,"my_hand":"h_0_1_3_0","opponent_hand":"h_2_1_3_1","win":true,"tie":false,"bet":1,"earnings":5,"expected_value":0.28125,"expected_earnings":1.40625,"bet_rt":1786,"block":3,"trial_type":"card_game","trial_index":74,"time_elapsed":466240,"internal_node_id":"0.0-74.0"},{"type":"card_game","game_type":"straight_flush","losers":true,"see_result":false,"my_hand":"h_2_0_2_1","opponent_hand":"h_2_1_3_1","win":true,"tie":false,"bet":2,"earnings":10,"expected_value":0.4375,"expected_earnings":4.375,"bet_rt":4269,"block":3,"trial_type":"card_game","trial_index":75,"time_elapsed":471011,"internal_node_id":"0.0-75.0"},{"type":"card_game","game_type":"straight_flush","losers":true,"see_result":false,"my_hand":"h_3_1_3_0","opponent_hand":"h_3_0_1_0","win":false,"tie":false,"bet":2,"earnings":-10,"expected_value":-0.1875,"expected_earnings":-1.875,"bet_rt":1365,"block":3,"trial_type":"card_game","trial_index":76,"time_elapsed":472878,"internal_node_id":"0.0-76.0"},{"type":"card_game","game_type":"straight_flush","losers":true,"see_result":false,"my_hand":"h_3_0_1_0","opponent_hand":"h_2_1_1_1","win":true,"tie":false,"bet":1,"earnings":5,"expected_value":0.09375,"expected_earnings":0.46875,"bet_rt":3388,"block":3,"trial_type":"card_game","trial_index":77,"time_elapsed":476768,"internal_node_id":"0.0-77.0"},{"type":"card_game","game_type":"straight_flush","losers":true,"see_result":false,"my_hand":"h_1_1_1_0","opponent_hand":"h_0_1_3_1","win":true,"tie":false,"bet":1,"earnings":5,"expected_value":0.8125,"expected_earnings":4.0625,"bet_rt":1485,"block":3,"trial_type":"card_game","trial_index":78,"time_elapsed":478754,"internal_node_id":"0.0-78.0"},{"type":"card_game","game_type":"straight_flush","losers":true,"see_result":false,"my_hand":"h_1_0_0_0","opponent_hand":"h_0_0_0_1","win":false,"tie":false,"bet":1,"earnings":-5,"expected_value":-0.65625,"expected_earnings":-3.28125,"bet_rt":1622,"block":3,"trial_type":"card_game","trial_index":79,"time_elapsed":480877,"internal_node_id":"0.0-79.0"},{"type":"card_game","game_type":"straight_flush","losers":true,"see_result":false,"my_hand":"h_1_0_2_0","opponent_hand":"h_3_1_0_0","win":false,"tie":false,"bet":2,"earnings":-10,"expected_value":-0.78125,"expected_earnings":-7.8125,"bet_rt":1210,"block":3,"trial_type":"card_game","trial_index":80,"time_elapsed":482590,"internal_node_id":"0.0-80.0"},{"type":"card_game","game_type":"straight_flush","losers":true,"see_result":false,"my_hand":"h_3_0_2_1","opponent_hand":"h_1_0_0_1","win":false,"tie":false,"bet":2,"earnings":-10,"expected_value":-0.53125,"expected_earnings":-5.3125,"bet_rt":1590,"block":3,"trial_type":"card_game","trial_index":81,"time_elapsed":484681,"internal_node_id":"0.0-81.0"},{"type":"card_game","game_type":"straight_flush","losers":true,"see_result":false,"my_hand":"h_1_0_0_1","opponent_hand":"h_0_0_2_0","win":false,"tie":false,"bet":1,"earnings":-5,"expected_value":-0.28125,"expected_earnings":-1.40625,"bet_rt":3000,"block":3,"trial_type":"card_game","trial_index":82,"time_elapsed":488183,"internal_node_id":"0.0-82.0"},{"type":"card_game","game_type":"straight_flush","losers":true,"see_result":false,"my_hand":"h_1_0_0_0","opponent_hand":"h_3_0_1_0","win":false,"tie":false,"bet":0,"earnings":0,"expected_value":-0.65625,"expected_earnings":0,"bet_rt":1975,"block":3,"trial_type":"card_game","trial_index":83,"time_elapsed":490659,"internal_node_id":"0.0-83.0"},{"type":"card_game","game_type":"straight_flush","losers":true,"see_result":false,"my_hand":"h_0_0_3_0","opponent_hand":"h_1_1_1_0","win":false,"tie":false,"bet":1,"earnings":-5,"expected_value":0.34375,"expected_earnings":1.71875,"bet_rt":1434,"block":3,"trial_type":"card_game","trial_index":84,"time_elapsed":492596,"internal_node_id":"0.0-84.0"},{"type":"card_game","game_type":"straight_flush","losers":true,"see_result":false,"my_hand":"h_2_1_1_1","opponent_hand":"h_0_1_1_1","win":false,"tie":false,"bet":0,"earnings":0,"expected_value":-0.84375,"expected_earnings":0,"bet_rt":3059,"block":3,"trial_type":"card_game","trial_index":85,"time_elapsed":496158,"internal_node_id":"0.0-85.0"},{"type":"card_game","game_type":"straight_flush","losers":true,"see_result":false,"my_hand":"h_3_0_1_1","opponent_hand":"h_0_1_0_0","win":false,"tie":false,"bet":0,"earnings":0,"expected_value":0.03125,"expected_earnings":0,"bet_rt":2399,"block":3,"trial_type":"card_game","trial_index":86,"time_elapsed":499057,"internal_node_id":"0.0-86.0"},{"type":"card_game","game_type":"straight_flush","losers":true,"see_result":false,"my_hand":"h_1_1_3_0","opponent_hand":"h_3_1_2_1","win":true,"tie":false,"bet":1,"earnings":5,"expected_value":0.03125,"expected_earnings":0.15625,"bet_rt":1612,"block":3,"trial_type":"card_game","trial_index":87,"time_elapsed":501171,"internal_node_id":"0.0-87.0"},{"type":"card_game","game_type":"straight_flush","losers":true,"see_result":false,"my_hand":"h_3_1_1_0","opponent_hand":"h_2_0_3_0","win":true,"tie":false,"bet":1,"earnings":5,"expected_value":-0.03125,"expected_earnings":-0.15625,"bet_rt":1037,"block":3,"trial_type":"card_game","trial_index":88,"time_elapsed":502710,"internal_node_id":"0.0-88.0"},{"type":"card_game","game_type":"straight_flush","losers":true,"see_result":false,"my_hand":"h_3_0_3_1","opponent_hand":"h_0_1_1_0","win":true,"tie":false,"bet":2,"earnings":10,"expected_value":-0.1875,"expected_earnings":-1.875,"bet_rt":1870,"block":3,"trial_type":"card_game","trial_index":89,"time_elapsed":505082,"internal_node_id":"0.0-89.0"},{"type":"card_game","game_type":"straight_flush","losers":true,"see_result":false,"my_hand":"h_1_1_2_0","opponent_hand":"h_3_1_2_0","win":true,"tie":false,"bet":1,"earnings":5,"expected_value":-0.40625,"expected_earnings":-2.03125,"bet_rt":5473,"block":3,"trial_type":"card_game","trial_index":90,"time_elapsed":511058,"internal_node_id":"0.0-90.0"},{"type":"card_game","game_type":"straight_flush","losers":true,"see_result":false,"my_hand":"h_0_1_2_1","opponent_hand":"h_2_1_2_0","win":true,"tie":false,"bet":0,"earnings":0,"expected_value":0.53125,"expected_earnings":0,"bet_rt":1971,"block":3,"trial_type":"card_game","trial_index":91,"time_elapsed":513530,"internal_node_id":"0.0-91.0"},{"type":"card_game","game_type":"straight_flush","losers":true,"see_result":false,"my_hand":"h_1_0_1_1","opponent_hand":"h_3_1_0_1","win":true,"tie":false,"bet":1,"earnings":5,"expected_value":0.8125,"expected_earnings":4.0625,"bet_rt":3913,"block":3,"trial_type":"card_game","trial_index":92,"time_elapsed":517947,"internal_node_id":"0.0-92.0"},{"rt":5745.739999983925,"stimulus":"<p>You earned a performance bonus of 10 cents on this set of trials.</p><p>You have earned a performance bonus of 105 cents over the experiment so far, plus $1.50 for making it to this phase.</p><p>Press any key to continue.</p>","key_press":32,"trial_type":"html-keyboard-response","trial_index":93,"time_elapsed":523695,"internal_node_id":"0.0-93.0"},{"rt":2131.630000018049,"stimulus":"<p>Great, we just have a few questions to ask you and then you'll be finished!</p><p>Press any key to continue.</p>","key_press":32,"trial_type":"html-keyboard-response","trial_index":94,"time_elapsed":525827,"internal_node_id":"0.0-94.0"},{"rt":18584.610000019893,"responses":"{\"Q0\":3,\"Q1\":4,\"Q2\":1}","question_order":"[0,1,2]","response_trial_type":"debrief","trial_type":"survey-likert","trial_index":95,"time_elapsed":544416,"internal_node_id":"0.0-95.0"},{"rt":12115.884999977425,"responses":"{\"Q0\":\">65\",\"Q1\":\"Bachelor's degree\",\"Q2\":\"Male\",\"Q3\":\"White\"}","question_order":"[0,1,2,3]","response_trial_type":"demographics","trial_type":"survey-multi-choice","trial_index":96,"time_elapsed":556535,"internal_node_id":"0.0-96.0"},{"rt":4042.330000025686,"responses":"{\"Q0\":\"NO\"}","response_trial_type":"comments","trial_type":"survey-text","trial_index":97,"time_elapsed":560673,"internal_node_id":"0.0-97.0"}]