[{"view_history":"[{\"page_index\":0,\"viewing_time\":18574},{\"page_index\":1,\"viewing_time\":13566},{\"page_index\":2,\"viewing_time\":8737},{\"page_index\":3,\"viewing_time\":30208},{\"page_index\":4,\"viewing_time\":29802},{\"page_index\":5,\"viewing_time\":13528},{\"page_index\":6,\"viewing_time\":9985}]","rt":124402,"trial_type":"instructions","trial_index":0,"time_elapsed":124414,"internal_node_id":"0.0-0.0"},{"type":"hand_comparison","hand_win":"h_1_0_2_1","hand_lose":"h_3_0_0_0","explanation":"Adjacent cards beat non-adjacent.","hand_indices":[1,0],"hand_choice":1,"correct":true,"rt":20390,"trial_type":"hand_comparison","trial_index":1,"time_elapsed":146813,"internal_node_id":"0.0-1.0"},{"type":"hand_comparison","hand_win":"h_0_0_1_0","hand_lose":"h_3_0_2_1","explanation":"Same-suit adjacent beats different suit.","hand_indices":[1,0],"hand_choice":1,"correct":true,"rt":9738,"trial_type":"hand_comparison","trial_index":2,"time_elapsed":158556,"internal_node_id":"0.0-2.0"},{"type":"hand_comparison","hand_win":"h_3_0_0_1","hand_lose":"h_2_0_2_1","explanation":"Highest card breaks ties.","hand_indices":[1,0],"hand_choice":1,"correct":true,"rt":19654,"trial_type":"hand_comparison","trial_index":3,"time_elapsed":180212,"internal_node_id":"0.0-3.0"},{"type":"hand_comparison","hand_win":"h_3_1_2_1","hand_lose":"h_2_0_3_0","explanation":"Black cards beat red cards if the numbers are tied.","hand_indices":[1,0],"hand_choice":1,"correct":true,"rt":8247,"trial_type":"hand_comparison","trial_index":4,"time_elapsed":190461,"internal_node_id":"0.0-4.0"},{"rt":6908,"stimulus":"<p><b>Congratulations, you passed the test, and will get to proceed to phase 2!</b></p><p>You have earned a $1.50 bonus, and will be awarded a performance bonus based on your bets in the next phase.</p><p>Press any key to continue.</p>","key_press":13,"trial_type":"html-keyboard-response","trial_index":5,"time_elapsed":197377,"internal_node_id":"0.0-5.0"},{"rt":3673,"stimulus":"<p>Now you get to play a few hands. After you bet, we'll show you your opponent's hand and how much you won (or lost), and at the end of these hands we'll tell you your total earnings.</p><p>Press any key to continue.</p>","key_press":32,"trial_type":"html-keyboard-response","trial_index":6,"time_elapsed":201052,"internal_node_id":"0.0-6.0"},{"type":"card_game","game_type":"straight_flush","losers":false,"see_result":true,"my_hand":"h_0_0_3_1","opponent_hand":"h_1_0_2_1","win":false,"tie":false,"bet":0,"earnings":0,"expected_value":-0.21875,"expected_earnings":0,"bet_rt":13366,"block":1,"trial_type":"card_game","trial_index":7,"time_elapsed":216005,"internal_node_id":"0.0-7.0"},{"type":"card_game","game_type":"straight_flush","losers":false,"see_result":true,"my_hand":"h_2_0_1_1","opponent_hand":"h_1_1_2_0","win":false,"tie":true,"bet":2,"earnings":0,"expected_value":0.40625,"expected_earnings":4.0625,"bet_rt":6718,"block":1,"trial_type":"card_game","trial_index":8,"time_elapsed":224305,"internal_node_id":"0.0-8.0"},{"type":"card_game","game_type":"straight_flush","losers":false,"see_result":true,"my_hand":"h_1_0_1_1","opponent_hand":"h_1_0_1_0","win":true,"tie":false,"bet":0,"earnings":0,"expected_value":-0.8125,"expected_earnings":0,"bet_rt":6729,"block":1,"trial_type":"card_game","trial_index":9,"time_elapsed":232609,"internal_node_id":"0.0-9.0"},{"type":"card_game","game_type":"straight_flush","losers":false,"see_result":true,"my_hand":"h_0_1_3_0","opponent_hand":"h_3_0_3_1","win":false,"tie":false,"bet":2,"earnings":-10,"expected_value":-0.28125,"expected_earnings":-2.8125,"bet_rt":2916,"block":1,"trial_type":"card_game","trial_index":10,"time_elapsed":237122,"internal_node_id":"0.0-10.0"},{"type":"card_game","game_type":"straight_flush","losers":false,"see_result":true,"my_hand":"h_3_0_3_1","opponent_hand":"h_0_1_1_0","win":false,"tie":false,"bet":2,"earnings":-10,"expected_value":0.1875,"expected_earnings":1.875,"bet_rt":1359,"block":1,"trial_type":"card_game","trial_index":11,"time_elapsed":240057,"internal_node_id":"0.0-11.0"},{"type":"card_game","game_type":"straight_flush","losers":false,"see_result":true,"my_hand":"h_1_1_1_0","opponent_hand":"h_3_0_2_1","win":false,"tie":false,"bet":0,"earnings":0,"expected_value":-0.8125,"expected_earnings":0,"bet_rt":1386,"block":1,"trial_type":"card_game","trial_index":12,"time_elapsed":243027,"internal_node_id":"0.0-12.0"},{"type":"card_game","game_type":"straight_flush","losers":false,"see_result":true,"my_hand":"h_2_0_3_0","opponent_hand":"h_0_1_0_1","win":true,"tie":false,"bet":2,"earnings":10,"expected_value":0.90625,"expected_earnings":9.0625,"bet_rt":2528,"block":1,"trial_type":"card_game","trial_index":13,"time_elapsed":247140,"internal_node_id":"0.0-13.0"},{"type":"card_game","game_type":"straight_flush","losers":false,"see_result":true,"my_hand":"h_0_0_3_1","opponent_hand":"h_3_1_2_1","win":false,"tie":false,"bet":1,"earnings":-5,"expected_value":-0.21875,"expected_earnings":-1.09375,"bet_rt":2502,"block":1,"trial_type":"card_game","trial_index":14,"time_elapsed":251216,"internal_node_id":"0.0-14.0"},{"type":"card_game","game_type":"straight_flush","losers":false,"see_result":true,"my_hand":"h_0_1_2_1","opponent_hand":"h_3_0_1_0","win":false,"tie":false,"bet":0,"earnings":0,"expected_value":-0.53125,"expected_earnings":0,"bet_rt":5546,"block":1,"trial_type":"card_game","trial_index":15,"time_elapsed":258340,"internal_node_id":"0.0-15.0"},{"type":"card_game","game_type":"straight_flush","losers":false,"see_result":true,"my_hand":"h_1_1_3_1","opponent_hand":"h_3_0_3_0","win":false,"tie":false,"bet":0,"earnings":0,"expected_value":0.09375,"expected_earnings":0,"bet_rt":3480,"block":1,"trial_type":"card_game","trial_index":16,"time_elapsed":263391,"internal_node_id":"0.0-16.0"},{"type":"card_game","game_type":"straight_flush","losers":false,"see_result":true,"my_hand":"h_0_1_1_0","opponent_hand":"h_0_1_2_0","win":true,"tie":false,"bet":1,"earnings":5,"expected_value":0.28125,"expected_earnings":1.40625,"bet_rt":2885,"block":1,"trial_type":"card_game","trial_index":17,"time_elapsed":267846,"internal_node_id":"0.0-17.0"},{"type":"card_game","game_type":"straight_flush","losers":false,"see_result":true,"my_hand":"h_3_0_2_1","opponent_hand":"h_3_1_0_1","win":true,"tie":false,"bet":2,"earnings":10,"expected_value":0.53125,"expected_earnings":5.3125,"bet_rt":1413,"block":1,"trial_type":"card_game","trial_index":18,"time_elapsed":271180,"internal_node_id":"0.0-18.0"},{"type":"card_game","game_type":"straight_flush","losers":false,"see_result":true,"my_hand":"h_0_1_1_1","opponent_hand":"h_2_1_1_1","win":false,"tie":false,"bet":1,"earnings":-5,"expected_value":0.71875,"expected_earnings":3.59375,"bet_rt":1909,"block":1,"trial_type":"card_game","trial_index":19,"time_elapsed":274661,"internal_node_id":"0.0-19.0"},{"type":"card_game","game_type":"straight_flush","losers":false,"see_result":true,"my_hand":"h_0_0_2_0","opponent_hand":"h_3_1_3_1","win":false,"tie":false,"bet":0,"earnings":0,"expected_value":-0.71875,"expected_earnings":0,"bet_rt":2487,"block":1,"trial_type":"card_game","trial_index":20,"time_elapsed":278735,"internal_node_id":"0.0-20.0"},{"type":"card_game","game_type":"straight_flush","losers":false,"see_result":true,"my_hand":"h_2_0_2_0","opponent_hand":"h_1_0_1_0","win":true,"tie":false,"bet":0,"earnings":0,"expected_value":-0.484375,"expected_earnings":0,"bet_rt":2100,"block":1,"trial_type":"card_game","trial_index":21,"time_elapsed":282411,"internal_node_id":"0.0-21.0"},{"type":"card_game","game_type":"straight_flush","losers":false,"see_result":true,"my_hand":"h_3_0_1_1","opponent_hand":"h_0_1_1_1","win":false,"tie":false,"bet":0,"earnings":0,"expected_value":-0.03125,"expected_earnings":0,"bet_rt":1664,"block":1,"trial_type":"card_game","trial_index":22,"time_elapsed":285654,"internal_node_id":"0.0-22.0"},{"type":"card_game","game_type":"straight_flush","losers":false,"see_result":true,"my_hand":"h_2_1_3_1","opponent_hand":"h_1_0_2_0","win":true,"tie":false,"bet":2,"earnings":10,"expected_value":0.96875,"expected_earnings":9.6875,"bet_rt":2297,"block":1,"trial_type":"card_game","trial_index":23,"time_elapsed":289521,"internal_node_id":"0.0-23.0"},{"type":"card_game","game_type":"straight_flush","losers":false,"see_result":true,"my_hand":"h_1_1_2_0","opponent_hand":"h_3_0_2_1","win":false,"tie":false,"bet":2,"earnings":-10,"expected_value":0.40625,"expected_earnings":4.0625,"bet_rt":1156,"block":1,"trial_type":"card_game","trial_index":24,"time_elapsed":292247,"internal_node_id":"0.0-24.0"},{"type":"card_game","game_type":"straight_flush","losers":false,"see_result":true,"my_hand":"h_3_0_2_1","opponent_hand":"h_0_0_0_0","win":true,"tie":false,"bet":2,"earnings":10,"expected_value":0.53125,"expected_earnings":5.3125,"bet_rt":798,"block":1,"trial_type":"card_game","trial_index":25,"time_elapsed":294623,"internal_node_id":"0.0-25.0"},{"type":"card_game","game_type":"straight_flush","losers":false,"see_result":true,"my_hand":"h_1_1_2_1","opponent_hand":"h_2_0_2_1","win":true,"tie":false,"bet":2,"earnings":10,"expected_value":0.84375,"expected_earnings":8.4375,"bet_rt":1527,"block":1,"trial_type":"card_game","trial_index":26,"time_elapsed":297721,"internal_node_id":"0.0-26.0"},{"type":"card_game","game_type":"straight_flush","losers":false,"see_result":true,"my_hand":"h_0_1_1_0","opponent_hand":"h_1_1_1_0","win":true,"tie":false,"bet":1,"earnings":5,"expected_value":0.28125,"expected_earnings":1.40625,"bet_rt":1403,"block":1,"trial_type":"card_game","trial_index":27,"time_elapsed":300694,"internal_node_id":"0.0-27.0"},{"type":"card_game","game_type":"straight_flush","losers":false,"see_result":true,"my_hand":"h_2_1_0_1","opponent_hand":"h_1_0_3_1","win":false,"tie":false,"bet":1,"earnings":-5,"expected_value":-0.53125,"expected_earnings":-2.65625,"bet_rt":2031,"block":1,"trial_type":"card_game","trial_index":28,"time_elapsed":304303,"internal_node_id":"0.0-28.0"},{"type":"card_game","game_type":"straight_flush","losers":false,"see_result":true,"my_hand":"h_0_1_0_1","opponent_hand":"h_1_1_2_0","win":false,"tie":false,"bet":0,"earnings":0,"expected_value":-0.890625,"expected_earnings":0,"bet_rt":1518,"block":1,"trial_type":"card_game","trial_index":29,"time_elapsed":307394,"internal_node_id":"0.0-29.0"},{"type":"card_game","game_type":"straight_flush","losers":false,"see_result":true,"my_hand":"h_1_1_3_0","opponent_hand":"h_3_0_3_0","win":false,"tie":false,"bet":0,"earnings":0,"expected_value":-0.03125,"expected_earnings":0,"bet_rt":2043,"block":1,"trial_type":"card_game","trial_index":30,"time_elapsed":311010,"internal_node_id":"0.0-30.0"},{"type":"card_game","game_type":"straight_flush","losers":false,"see_result":true,"my_hand":"h_1_1_0_1","opponent_hand":"h_0_0_0_0","win":true,"tie":false,"bet":1,"earnings":5,"expected_value":0.71875,"expected_earnings":3.59375,"bet_rt":1836,"block":1,"trial_type":"card_game","trial_index":31,"time_elapsed":314424,"internal_node_id":"0.0-31.0"},{"type":"card_game","game_type":"straight_flush","losers":false,"see_result":true,"my_hand":"h_3_1_3_0","opponent_hand":"h_0_1_3_1","win":true,"tie":false,"bet":1,"earnings":5,"expected_value":0.1875,"expected_earnings":0.9375,"bet_rt":3502,"block":1,"trial_type":"card_game","trial_index":32,"time_elapsed":319492,"internal_node_id":"0.0-32.0"},{"type":"card_game","game_type":"straight_flush","losers":false,"see_result":true,"my_hand":"h_0_0_0_1","opponent_hand":"h_3_1_3_1","win":false,"tie":false,"bet":0,"earnings":0,"expected_value":-0.9375,"expected_earnings":0,"bet_rt":1833,"block":1,"trial_type":"card_game","trial_index":33,"time_elapsed":322890,"internal_node_id":"0.0-33.0"},{"type":"card_game","game_type":"straight_flush","losers":false,"see_result":true,"my_hand":"h_3_1_1_0","opponent_hand":"h_1_1_1_1","win":true,"tie":false,"bet":1,"earnings":5,"expected_value":0.03125,"expected_earnings":0.15625,"bet_rt":1932,"block":1,"trial_type":"card_game","trial_index":34,"time_elapsed":326390,"internal_node_id":"0.0-34.0"},{"type":"card_game","game_type":"straight_flush","losers":false,"see_result":true,"my_hand":"h_2_0_0_0","opponent_hand":"h_1_1_0_1","win":false,"tie":false,"bet":0,"earnings":0,"expected_value":-0.71875,"expected_earnings":0,"bet_rt":2119,"block":1,"trial_type":"card_game","trial_index":35,"time_elapsed":330089,"internal_node_id":"0.0-35.0"},{"type":"card_game","game_type":"straight_flush","losers":false,"see_result":true,"my_hand":"h_2_1_2_1","opponent_hand":"h_0_0_1_1","win":false,"tie":false,"bet":1,"earnings":-5,"expected_value":-0.390625,"expected_earnings":-1.953125,"bet_rt":1495,"block":1,"trial_type":"card_game","trial_index":36,"time_elapsed":333157,"internal_node_id":"0.0-36.0"},{"type":"card_game","game_type":"straight_flush","losers":false,"see_result":true,"my_hand":"h_1_0_2_0","opponent_hand":"h_1_0_3_1","win":true,"tie":false,"bet":2,"earnings":10,"expected_value":0.78125,"expected_earnings":7.8125,"bet_rt":2010,"block":1,"trial_type":"card_game","trial_index":37,"time_elapsed":336744,"internal_node_id":"0.0-37.0"},{"type":"card_game","game_type":"straight_flush","losers":false,"see_result":true,"my_hand":"h_3_0_0_0","opponent_hand":"h_0_0_1_0","win":false,"tie":false,"bet":0,"earnings":0,"expected_value":-0.34375,"expected_earnings":0,"bet_rt":1647,"block":1,"trial_type":"card_game","trial_index":38,"time_elapsed":339962,"internal_node_id":"0.0-38.0"},{"rt":6379,"stimulus":"<p>You earned a performance bonus of 35 cents on this set of trials, plus $1.50 for making it to this phase.</p><p>Press any key to continue.</p>","key_press":32,"trial_type":"html-keyboard-response","trial_index":39,"time_elapsed":346345,"internal_node_id":"0.0-39.0"},{"rt":2790,"stimulus":"<p>To test how well you understand the game, we'll now give you a series of hands where you won't see your results after you bet. You will just see your earnings at the end of the set of hands.</p><p>Press any key to continue.</p>","key_press":32,"trial_type":"html-keyboard-response","trial_index":40,"time_elapsed":349137,"internal_node_id":"0.0-40.0"},{"type":"card_game","game_type":"straight_flush","losers":false,"see_result":false,"my_hand":"h_3_0_1_1","opponent_hand":"h_2_1_1_0","win":false,"tie":false,"bet":0,"earnings":0,"expected_value":-0.03125,"expected_earnings":0,"bet_rt":4407,"block":2,"trial_type":"card_game","trial_index":41,"time_elapsed":354047,"internal_node_id":"0.0-41.0"},{"type":"card_game","game_type":"straight_flush","losers":false,"see_result":false,"my_hand":"h_2_1_1_1","opponent_hand":"h_2_0_3_0","win":false,"tie":false,"bet":0,"earnings":0,"expected_value":0.84375,"expected_earnings":0,"bet_rt":2920,"block":2,"trial_type":"card_game","trial_index":42,"time_elapsed":357469,"internal_node_id":"0.0-42.0"},{"type":"card_game","game_type":"straight_flush","losers":false,"see_result":false,"my_hand":"h_1_0_1_0","opponent_hand":"h_3_1_2_1","win":false,"tie":false,"bet":1,"earnings":-5,"expected_value":-0.859375,"expected_earnings":-4.296875,"bet_rt":2082,"block":2,"trial_type":"card_game","trial_index":43,"time_elapsed":360054,"internal_node_id":"0.0-43.0"},{"type":"card_game","game_type":"straight_flush","losers":false,"see_result":false,"my_hand":"h_2_0_3_1","opponent_hand":"h_1_0_2_0","win":false,"tie":false,"bet":2,"earnings":-10,"expected_value":0.59375,"expected_earnings":5.9375,"bet_rt":3967,"block":2,"trial_type":"card_game","trial_index":44,"time_elapsed":364526,"internal_node_id":"0.0-44.0"},{"type":"card_game","game_type":"straight_flush","losers":false,"see_result":false,"my_hand":"h_0_0_3_0","opponent_hand":"h_3_1_0_1","win":false,"tie":false,"bet":0,"earnings":0,"expected_value":-0.34375,"expected_earnings":0,"bet_rt":2561,"block":2,"trial_type":"card_game","trial_index":45,"time_elapsed":367589,"internal_node_id":"0.0-45.0"},{"type":"card_game","game_type":"straight_flush","losers":false,"see_result":false,"my_hand":"h_1_1_0_1","opponent_hand":"h_1_1_3_0","win":true,"tie":false,"bet":2,"earnings":10,"expected_value":0.71875,"expected_earnings":7.1875,"bet_rt":2554,"block":2,"trial_type":"card_game","trial_index":46,"time_elapsed":370646,"internal_node_id":"0.0-46.0"},{"type":"card_game","game_type":"straight_flush","losers":false,"see_result":false,"my_hand":"h_3_0_2_1","opponent_hand":"h_2_1_2_1","win":true,"tie":false,"bet":2,"earnings":10,"expected_value":0.53125,"expected_earnings":5.3125,"bet_rt":787,"block":2,"trial_type":"card_game","trial_index":47,"time_elapsed":371940,"internal_node_id":"0.0-47.0"},{"type":"card_game","game_type":"straight_flush","losers":false,"see_result":false,"my_hand":"h_0_1_2_1","opponent_hand":"h_3_1_2_0","win":false,"tie":false,"bet":1,"earnings":-5,"expected_value":-0.53125,"expected_earnings":-2.65625,"bet_rt":1363,"block":2,"trial_type":"card_game","trial_index":48,"time_elapsed":373805,"internal_node_id":"0.0-48.0"},{"type":"card_game","game_type":"straight_flush","losers":false,"see_result":false,"my_hand":"h_2_0_2_0","opponent_hand":"h_2_0_2_1","win":false,"tie":false,"bet":0,"earnings":0,"expected_value":-0.484375,"expected_earnings":0,"bet_rt":979,"block":2,"trial_type":"card_game","trial_index":49,"time_elapsed":375287,"internal_node_id":"0.0-49.0"},{"type":"card_game","game_type":"straight_flush","losers":false,"see_result":false,"my_hand":"h_3_1_0_1","opponent_hand":"h_0_1_0_0","win":true,"tie":false,"bet":2,"earnings":10,"expected_value":-0.15625,"expected_earnings":-1.5625,"bet_rt":1808,"block":2,"trial_type":"card_game","trial_index":50,"time_elapsed":377598,"internal_node_id":"0.0-50.0"},{"type":"card_game","game_type":"straight_flush","losers":false,"see_result":false,"my_hand":"h_1_0_0_1","opponent_hand":"h_3_0_0_1","win":true,"tie":false,"bet":1,"earnings":5,"expected_value":0.28125,"expected_earnings":1.40625,"bet_rt":1218,"block":2,"trial_type":"card_game","trial_index":51,"time_elapsed":379319,"internal_node_id":"0.0-51.0"},{"type":"card_game","game_type":"straight_flush","losers":false,"see_result":false,"my_hand":"h_3_1_1_1","opponent_hand":"h_0_0_3_0","win":true,"tie":false,"bet":2,"earnings":10,"expected_value":0.09375,"expected_earnings":0.9375,"bet_rt":1514,"block":2,"trial_type":"card_game","trial_index":52,"time_elapsed":381336,"internal_node_id":"0.0-52.0"},{"type":"card_game","game_type":"straight_flush","losers":false,"see_result":false,"my_hand":"h_2_0_1_1","opponent_hand":"h_0_1_3_0","win":true,"tie":false,"bet":2,"earnings":10,"expected_value":0.40625,"expected_earnings":4.0625,"bet_rt":1479,"block":2,"trial_type":"card_game","trial_index":53,"time_elapsed":383319,"internal_node_id":"0.0-53.0"},{"type":"card_game","game_type":"straight_flush","losers":false,"see_result":false,"my_hand":"h_3_0_2_0","opponent_hand":"h_1_0_2_0","win":true,"tie":false,"bet":2,"earnings":10,"expected_value":0.90625,"expected_earnings":9.0625,"bet_rt":1097,"block":2,"trial_type":"card_game","trial_index":54,"time_elapsed":384919,"internal_node_id":"0.0-54.0"},{"type":"card_game","game_type":"straight_flush","losers":false,"see_result":false,"my_hand":"h_3_1_3_1","opponent_hand":"h_3_1_2_0","win":false,"tie":false,"bet":2,"earnings":-10,"expected_value":0.234375,"expected_earnings":2.34375,"bet_rt":1410,"block":2,"trial_type":"card_game","trial_index":55,"time_elapsed":386831,"internal_node_id":"0.0-55.0"},{"type":"card_game","game_type":"straight_flush","losers":false,"see_result":false,"my_hand":"h_3_0_0_0","opponent_hand":"h_0_1_0_1","win":true,"tie":false,"bet":0,"earnings":0,"expected_value":-0.34375,"expected_earnings":0,"bet_rt":1617,"block":2,"trial_type":"card_game","trial_index":56,"time_elapsed":388952,"internal_node_id":"0.0-56.0"},{"type":"card_game","game_type":"straight_flush","losers":false,"see_result":false,"my_hand":"h_2_0_1_0","opponent_hand":"h_3_1_3_1","win":true,"tie":false,"bet":2,"earnings":10,"expected_value":0.78125,"expected_earnings":7.8125,"bet_rt":1423,"block":2,"trial_type":"card_game","trial_index":57,"time_elapsed":390879,"internal_node_id":"0.0-57.0"},{"type":"card_game","game_type":"straight_flush","losers":false,"see_result":false,"my_hand":"h_1_1_3_1","opponent_hand":"h_2_0_3_0","win":false,"tie":false,"bet":2,"earnings":-10,"expected_value":0.09375,"expected_earnings":0.9375,"bet_rt":1625,"block":2,"trial_type":"card_game","trial_index":58,"time_elapsed":393007,"internal_node_id":"0.0-58.0"},{"type":"card_game","game_type":"straight_flush","losers":false,"see_result":false,"my_hand":"h_0_1_3_1","opponent_hand":"h_0_0_0_1","win":true,"tie":false,"bet":2,"earnings":10,"expected_value":-0.15625,"expected_earnings":-1.5625,"bet_rt":970,"block":2,"trial_type":"card_game","trial_index":59,"time_elapsed":394478,"internal_node_id":"0.0-59.0"},{"type":"card_game","game_type":"straight_flush","losers":false,"see_result":false,"my_hand":"h_0_1_2_1","opponent_hand":"h_2_1_1_1","win":false,"tie":false,"bet":2,"earnings":-10,"expected_value":-0.53125,"expected_earnings":-5.3125,"bet_rt":3200,"block":2,"trial_type":"card_game","trial_index":60,"time_elapsed":398181,"internal_node_id":"0.0-60.0"},{"type":"card_game","game_type":"straight_flush","losers":false,"see_result":false,"my_hand":"h_1_1_1_0","opponent_hand":"h_3_0_0_1","win":false,"tie":false,"bet":0,"earnings":0,"expected_value":-0.8125,"expected_earnings":0,"bet_rt":2027,"block":2,"trial_type":"card_game","trial_index":61,"time_elapsed":400711,"internal_node_id":"0.0-61.0"},{"type":"card_game","game_type":"straight_flush","losers":false,"see_result":false,"my_hand":"h_0_1_2_1","opponent_hand":"h_3_0_3_1","win":false,"tie":false,"bet":0,"earnings":0,"expected_value":-0.53125,"expected_earnings":0,"bet_rt":1155,"block":2,"trial_type":"card_game","trial_index":62,"time_elapsed":402368,"internal_node_id":"0.0-62.0"},{"type":"card_game","game_type":"straight_flush","losers":false,"see_result":false,"my_hand":"h_0_1_1_0","opponent_hand":"h_0_0_3_1","win":true,"tie":false,"bet":1,"earnings":5,"expected_value":0.28125,"expected_earnings":1.40625,"bet_rt":1337,"block":2,"trial_type":"card_game","trial_index":63,"time_elapsed":404208,"internal_node_id":"0.0-63.0"},{"type":"card_game","game_type":"straight_flush","losers":false,"see_result":false,"my_hand":"h_0_1_0_0","opponent_hand":"h_3_1_0_0","win":false,"tie":false,"bet":0,"earnings":0,"expected_value":-0.9375,"expected_earnings":0,"bet_rt":1242,"block":2,"trial_type":"card_game","trial_index":64,"time_elapsed":405952,"internal_node_id":"0.0-64.0"},{"rt":7978,"stimulus":"<p>You earned a performance bonus of 30 cents on this set of trials.</p><p>You have earned a performance bonus of 65 cents over the experiment so far, plus $1.50 for making it to this phase.</p><p>Press any key to continue.</p>","key_press":13,"trial_type":"html-keyboard-response","trial_index":65,"time_elapsed":413933,"internal_node_id":"0.0-65.0"},{"rt":9675,"stimulus":"<p><font color='red'><b>Now, we want you to try to lose the game! For the remainder of the experiment, if you bet and lose, you'll gain the amount you bet, and if you bet and win, you'll lose the amount you bet.</b></font></p><p>As before, you won't win or lose anything if you tie your opponent, or if you don't bet.</p><p>Press any key to continue.</p>","key_press":32,"trial_type":"html-keyboard-response","trial_index":66,"time_elapsed":423610,"internal_node_id":"0.0-66.0"},{"rt":6376,"responses":"{\"Q0\":\"Bet and my hand loses.\"}","question_order":"[0]","response_trial_type":"attention_check","trial_type":"survey-multi-choice","trial_index":67,"time_elapsed":429992,"internal_node_id":"0.0-67.0"},{"rt":3372,"stimulus":"<p>Great, now you get to play a few hands!</p><p>As before, you won't see your results after you bet. You will just see your earnings at the end of the set of hands.</p><p>Press any key to continue.</p>","key_press":13,"trial_type":"html-keyboard-response","trial_index":68,"time_elapsed":433369,"internal_node_id":"0.0-68.0"},{"type":"card_game","game_type":"straight_flush","losers":true,"see_result":false,"my_hand":"h_0_0_1_1","opponent_hand":"h_2_1_1_0","win":true,"tie":false,"bet":2,"earnings":10,"expected_value":-0.34375,"expected_earnings":-3.4375,"bet_rt":2024,"block":3,"trial_type":"card_game","trial_index":69,"time_elapsed":435897,"internal_node_id":"0.0-69.0"},{"type":"card_game","game_type":"straight_flush","losers":true,"see_result":false,"my_hand":"h_2_0_0_0","opponent_hand":"h_1_1_3_0","win":true,"tie":false,"bet":2,"earnings":10,"expected_value":0.71875,"expected_earnings":7.1875,"bet_rt":1105,"block":3,"trial_type":"card_game","trial_index":70,"time_elapsed":437505,"internal_node_id":"0.0-70.0"},{"type":"card_game","game_type":"straight_flush","losers":true,"see_result":false,"my_hand":"h_1_1_3_1","opponent_hand":"h_1_0_1_1","win":false,"tie":false,"bet":0,"earnings":0,"expected_value":-0.09375,"expected_earnings":0,"bet_rt":2864,"block":3,"trial_type":"card_game","trial_index":71,"time_elapsed":440872,"internal_node_id":"0.0-71.0"},{"type":"card_game","game_type":"straight_flush","losers":true,"see_result":false,"my_hand":"h_2_0_2_1","opponent_hand":"h_2_1_1_0","win":true,"tie":false,"bet":2,"earnings":10,"expected_value":0.4375,"expected_earnings":4.375,"bet_rt":1506,"block":3,"trial_type":"card_game","trial_index":72,"time_elapsed":442882,"internal_node_id":"0.0-72.0"},{"type":"card_game","game_type":"straight_flush","losers":true,"see_result":false,"my_hand":"h_2_0_1_1","opponent_hand":"h_2_1_3_0","win":true,"tie":false,"bet":0,"earnings":0,"expected_value":-0.40625,"expected_earnings":0,"bet_rt":1601,"block":3,"trial_type":"card_game","trial_index":73,"time_elapsed":444986,"internal_node_id":"0.0-73.0"},{"type":"card_game","game_type":"straight_flush","losers":true,"see_result":false,"my_hand":"h_0_0_0_1","opponent_hand":"h_0_1_1_1","win":true,"tie":false,"bet":2,"earnings":10,"expected_value":0.9375,"expected_earnings":9.375,"bet_rt":3631,"block":3,"trial_type":"card_game","trial_index":74,"time_elapsed":449119,"internal_node_id":"0.0-74.0"},{"type":"card_game","game_type":"straight_flush","losers":true,"see_result":false,"my_hand":"h_1_0_3_0","opponent_hand":"h_0_0_1_1","win":true,"tie":false,"bet":0,"earnings":0,"expected_value":0.09375,"expected_earnings":0,"bet_rt":2098,"block":3,"trial_type":"card_game","trial_index":75,"time_elapsed":451722,"internal_node_id":"0.0-75.0"},{"type":"card_game","game_type":"straight_flush","losers":true,"see_result":false,"my_hand":"h_1_0_3_1","opponent_hand":"h_1_1_0_0","win":true,"tie":false,"bet":2,"earnings":10,"expected_value":-0.03125,"expected_earnings":-0.3125,"bet_rt":887,"block":3,"trial_type":"card_game","trial_index":76,"time_elapsed":453111,"internal_node_id":"0.0-76.0"},{"type":"card_game","game_type":"straight_flush","losers":true,"see_result":false,"my_hand":"h_1_0_2_0","opponent_hand":"h_2_0_2_1","win":false,"tie":false,"bet":0,"earnings":0,"expected_value":-0.78125,"expected_earnings":0,"bet_rt":1275,"block":3,"trial_type":"card_game","trial_index":77,"time_elapsed":454888,"internal_node_id":"0.0-77.0"},{"type":"card_game","game_type":"straight_flush","losers":true,"see_result":false,"my_hand":"h_0_0_0_1","opponent_hand":"h_2_0_1_0","win":true,"tie":false,"bet":2,"earnings":10,"expected_value":0.9375,"expected_earnings":9.375,"bet_rt":1391,"block":3,"trial_type":"card_game","trial_index":78,"time_elapsed":456785,"internal_node_id":"0.0-78.0"},{"type":"card_game","game_type":"straight_flush","losers":true,"see_result":false,"my_hand":"h_0_1_2_0","opponent_hand":"h_1_1_3_0","win":true,"tie":false,"bet":2,"earnings":10,"expected_value":0.65625,"expected_earnings":6.5625,"bet_rt":985,"block":3,"trial_type":"card_game","trial_index":79,"time_elapsed":458274,"internal_node_id":"0.0-79.0"},{"type":"card_game","game_type":"straight_flush","losers":true,"see_result":false,"my_hand":"h_1_0_2_0","opponent_hand":"h_1_0_1_1","win":false,"tie":false,"bet":0,"earnings":0,"expected_value":-0.78125,"expected_earnings":0,"bet_rt":1400,"block":3,"trial_type":"card_game","trial_index":80,"time_elapsed":460177,"internal_node_id":"0.0-80.0"},{"type":"card_game","game_type":"straight_flush","losers":true,"see_result":false,"my_hand":"h_3_0_0_1","opponent_hand":"h_0_0_0_0","win":false,"tie":false,"bet":2,"earnings":-10,"expected_value":0.28125,"expected_earnings":2.8125,"bet_rt":946,"block":3,"trial_type":"card_game","trial_index":81,"time_elapsed":461626,"internal_node_id":"0.0-81.0"},{"type":"card_game","game_type":"straight_flush","losers":true,"see_result":false,"my_hand":"h_3_1_2_0","opponent_hand":"h_0_0_2_1","win":false,"tie":false,"bet":0,"earnings":0,"expected_value":-0.59375,"expected_earnings":0,"bet_rt":1496,"block":3,"trial_type":"card_game","trial_index":82,"time_elapsed":463625,"internal_node_id":"0.0-82.0"},{"type":"card_game","game_type":"straight_flush","losers":true,"see_result":false,"my_hand":"h_2_1_0_1","opponent_hand":"h_1_1_1_1","win":false,"tie":false,"bet":2,"earnings":-10,"expected_value":0.53125,"expected_earnings":5.3125,"bet_rt":1082,"block":3,"trial_type":"card_game","trial_index":83,"time_elapsed":465208,"internal_node_id":"0.0-83.0"},{"type":"card_game","game_type":"straight_flush","losers":true,"see_result":false,"my_hand":"h_2_1_1_0","opponent_hand":"h_2_0_2_1","win":false,"tie":false,"bet":0,"earnings":0,"expected_value":-0.46875,"expected_earnings":0,"bet_rt":1772,"block":3,"trial_type":"card_game","trial_index":84,"time_elapsed":467483,"internal_node_id":"0.0-84.0"},{"type":"card_game","game_type":"straight_flush","losers":true,"see_result":false,"my_hand":"h_0_1_0_1","opponent_hand":"h_0_1_3_1","win":true,"tie":false,"bet":2,"earnings":10,"expected_value":0.890625,"expected_earnings":8.90625,"bet_rt":1359,"block":3,"trial_type":"card_game","trial_index":85,"time_elapsed":469345,"internal_node_id":"0.0-85.0"},{"type":"card_game","game_type":"straight_flush","losers":true,"see_result":false,"my_hand":"h_2_1_3_0","opponent_hand":"h_1_1_1_1","win":false,"tie":false,"bet":0,"earnings":0,"expected_value":-0.53125,"expected_earnings":0,"bet_rt":1289,"block":3,"trial_type":"card_game","trial_index":86,"time_elapsed":471137,"internal_node_id":"0.0-86.0"},{"type":"card_game","game_type":"straight_flush","losers":true,"see_result":false,"my_hand":"h_0_1_1_1","opponent_hand":"h_0_1_3_1","win":false,"tie":false,"bet":2,"earnings":-10,"expected_value":-0.71875,"expected_earnings":-7.1875,"bet_rt":1162,"block":3,"trial_type":"card_game","trial_index":87,"time_elapsed":472801,"internal_node_id":"0.0-87.0"},{"type":"card_game","game_type":"straight_flush","losers":true,"see_result":false,"my_hand":"h_1_0_3_0","opponent_hand":"h_3_1_0_1","win":false,"tie":false,"bet":2,"earnings":-10,"expected_value":0.09375,"expected_earnings":0.9375,"bet_rt":1625,"block":3,"trial_type":"card_game","trial_index":88,"time_elapsed":474930,"internal_node_id":"0.0-88.0"},{"type":"card_game","game_type":"straight_flush","losers":true,"see_result":false,"my_hand":"h_0_0_3_0","opponent_hand":"h_2_0_1_0","win":true,"tie":false,"bet":2,"earnings":10,"expected_value":0.34375,"expected_earnings":3.4375,"bet_rt":1170,"block":3,"trial_type":"card_game","trial_index":89,"time_elapsed":476603,"internal_node_id":"0.0-89.0"},{"type":"card_game","game_type":"straight_flush","losers":true,"see_result":false,"my_hand":"h_1_0_3_0","opponent_hand":"h_3_1_1_1","win":true,"tie":false,"bet":2,"earnings":10,"expected_value":0.09375,"expected_earnings":0.9375,"bet_rt":1417,"block":3,"trial_type":"card_game","trial_index":90,"time_elapsed":478522,"internal_node_id":"0.0-90.0"},{"type":"card_game","game_type":"straight_flush","losers":true,"see_result":false,"my_hand":"h_3_1_3_0","opponent_hand":"h_0_0_2_0","win":false,"tie":false,"bet":2,"earnings":-10,"expected_value":-0.1875,"expected_earnings":-1.875,"bet_rt":1074,"block":3,"trial_type":"card_game","trial_index":91,"time_elapsed":480098,"internal_node_id":"0.0-91.0"},{"type":"card_game","game_type":"straight_flush","losers":true,"see_result":false,"my_hand":"h_2_1_1_1","opponent_hand":"h_0_0_0_1","win":false,"tie":false,"bet":0,"earnings":0,"expected_value":-0.84375,"expected_earnings":0,"bet_rt":1681,"block":3,"trial_type":"card_game","trial_index":92,"time_elapsed":482281,"internal_node_id":"0.0-92.0"},{"rt":8319,"stimulus":"<p>You earned a performance bonus of 50 cents on this set of trials.</p><p>You have earned a performance bonus of 115 cents over the experiment so far, plus $1.50 for making it to this phase.</p><p>Press any key to continue.</p>","key_press":13,"trial_type":"html-keyboard-response","trial_index":93,"time_elapsed":490605,"internal_node_id":"0.0-93.0"},{"rt":3232,"stimulus":"<p>Great, we just have a few questions to ask you and then you'll be finished!</p><p>Press any key to continue.</p>","key_press":13,"trial_type":"html-keyboard-response","trial_index":94,"time_elapsed":493839,"internal_node_id":"0.0-94.0"},{"rt":17675,"responses":"{\"Q0\":4,\"Q1\":3,\"Q2\":4}","question_order":"[0,1,2]","response_trial_type":"debrief","trial_type":"survey-likert","trial_index":95,"time_elapsed":511526,"internal_node_id":"0.0-95.0"},{"rt":11720,"responses":"{\"Q0\":\"45-55\",\"Q1\":\"Bachelor's degree\",\"Q2\":\"Female\",\"Q3\":\"White\"}","question_order":"[0,1,2,3]","response_trial_type":"demographics","trial_type":"survey-multi-choice","trial_index":96,"time_elapsed":523259,"internal_node_id":"0.0-96.0"},{"rt":1847,"responses":"{\"Q0\":\"\"}","response_trial_type":"comments","trial_type":"survey-text","trial_index":97,"time_elapsed":525122,"internal_node_id":"0.0-97.0"}]