[{"view_history":"[{\"page_index\":0,\"viewing_time\":14933.159999985946},{\"page_index\":1,\"viewing_time\":6390.67000002251},{\"page_index\":2,\"viewing_time\":53787.28499999852},{\"page_index\":3,\"viewing_time\":47256.16999997874},{\"page_index\":4,\"viewing_time\":58825.43500000611},{\"page_index\":5,\"viewing_time\":63685.20500001614},{\"page_index\":6,\"viewing_time\":9975.05499998806}]","rt":254856.70999999274,"trial_type":"instructions","trial_index":0,"time_elapsed":254868,"internal_node_id":"0.0-0.0"},{"type":"hand_comparison","hand_win":"h_1_0_2_1","hand_lose":"h_3_0_0_0","explanation":"Adjacent cards beat non-adjacent.","hand_indices":[1,0],"hand_choice":1,"correct":true,"rt":6624,"trial_type":"hand_comparison","trial_index":1,"time_elapsed":263518,"internal_node_id":"0.0-1.0"},{"type":"hand_comparison","hand_win":"h_0_0_1_0","hand_lose":"h_3_0_2_1","explanation":"Same-suit adjacent beats different suit.","hand_indices":[0,1],"hand_choice":0,"correct":true,"rt":7251,"trial_type":"hand_comparison","trial_index":2,"time_elapsed":272776,"internal_node_id":"0.0-2.0"},{"type":"hand_comparison","hand_win":"h_3_0_0_1","hand_lose":"h_2_0_2_1","explanation":"Highest card breaks ties.","hand_indices":[1,0],"hand_choice":1,"correct":true,"rt":5901,"trial_type":"hand_comparison","trial_index":3,"time_elapsed":280684,"internal_node_id":"0.0-3.0"},{"type":"hand_comparison","hand_win":"h_3_1_2_1","hand_lose":"h_2_0_3_0","explanation":"Black cards beat red cards if the numbers are tied.","hand_indices":[1,0],"hand_choice":1,"correct":true,"rt":6227,"trial_type":"hand_comparison","trial_index":4,"time_elapsed":288915,"internal_node_id":"0.0-4.0"},{"rt":2910.824999999022,"stimulus":"<p><b>Congratulations, you passed the test, and will get to proceed to phase 2!</b></p><p>You have earned a $1.50 bonus, and will be awarded a performance bonus based on your bets in the next phase.</p><p>Press any key to continue.</p>","key_press":32,"trial_type":"html-keyboard-response","trial_index":5,"time_elapsed":291854,"internal_node_id":"0.0-5.0"},{"rt":2760.0600000005215,"stimulus":"<p>Now you get to play a few hands. After you bet, we'll show you your opponent's hand and how much you won (or lost), and at the end of these hands we'll tell you your total earnings.</p><p>Press any key to continue.</p>","key_press":32,"trial_type":"html-keyboard-response","trial_index":6,"time_elapsed":294617,"internal_node_id":"0.0-6.0"},{"type":"card_game","game_type":"straight_flush","losers":false,"see_result":true,"my_hand":"h_2_1_1_0","opponent_hand":"h_2_1_0_1","win":true,"tie":false,"bet":2,"earnings":10,"expected_value":0.46875,"expected_earnings":4.6875,"bet_rt":5094,"block":1,"trial_type":"card_game","trial_index":7,"time_elapsed":301432,"internal_node_id":"0.0-7.0"},{"type":"card_game","game_type":"straight_flush","losers":false,"see_result":true,"my_hand":"h_0_1_0_0","opponent_hand":"h_0_0_3_0","win":false,"tie":false,"bet":0,"earnings":0,"expected_value":-0.9375,"expected_earnings":0,"bet_rt":2088,"block":1,"trial_type":"card_game","trial_index":8,"time_elapsed":305226,"internal_node_id":"0.0-8.0"},{"type":"card_game","game_type":"straight_flush","losers":false,"see_result":true,"my_hand":"h_3_1_3_1","opponent_hand":"h_3_0_2_1","win":false,"tie":false,"bet":0,"earnings":0,"expected_value":0.234375,"expected_earnings":0,"bet_rt":2455,"block":1,"trial_type":"card_game","trial_index":9,"time_elapsed":309353,"internal_node_id":"0.0-9.0"},{"type":"card_game","game_type":"straight_flush","losers":false,"see_result":true,"my_hand":"h_0_1_3_0","opponent_hand":"h_0_0_0_1","win":true,"tie":false,"bet":0,"earnings":0,"expected_value":-0.28125,"expected_earnings":0,"bet_rt":2292,"block":1,"trial_type":"card_game","trial_index":10,"time_elapsed":313317,"internal_node_id":"0.0-10.0"},{"type":"card_game","game_type":"straight_flush","losers":false,"see_result":true,"my_hand":"h_0_0_2_1","opponent_hand":"h_1_1_1_1","win":true,"tie":false,"bet":0,"earnings":0,"expected_value":-0.59375,"expected_earnings":0,"bet_rt":2995,"block":1,"trial_type":"card_game","trial_index":11,"time_elapsed":318000,"internal_node_id":"0.0-11.0"},{"type":"card_game","game_type":"straight_flush","losers":false,"see_result":true,"my_hand":"h_0_0_3_1","opponent_hand":"h_2_1_0_0","win":true,"tie":false,"bet":0,"earnings":0,"expected_value":-0.21875,"expected_earnings":0,"bet_rt":3962,"block":1,"trial_type":"card_game","trial_index":12,"time_elapsed":323658,"internal_node_id":"0.0-12.0"},{"type":"card_game","game_type":"straight_flush","losers":false,"see_result":true,"my_hand":"h_1_0_1_1","opponent_hand":"h_1_0_3_1","win":false,"tie":false,"bet":0,"earnings":0,"expected_value":-0.8125,"expected_earnings":0,"bet_rt":2340,"block":1,"trial_type":"card_game","trial_index":13,"time_elapsed":327707,"internal_node_id":"0.0-13.0"},{"type":"card_game","game_type":"straight_flush","losers":false,"see_result":true,"my_hand":"h_3_0_2_0","opponent_hand":"h_0_1_0_1","win":true,"tie":false,"bet":2,"earnings":10,"expected_value":0.90625,"expected_earnings":9.0625,"bet_rt":1737,"block":1,"trial_type":"card_game","trial_index":14,"time_elapsed":331111,"internal_node_id":"0.0-14.0"},{"type":"card_game","game_type":"straight_flush","losers":false,"see_result":true,"my_hand":"h_3_0_3_0","opponent_hand":"h_1_1_1_1","win":true,"tie":false,"bet":1,"earnings":5,"expected_value":0.140625,"expected_earnings":0.703125,"bet_rt":2728,"block":1,"trial_type":"card_game","trial_index":15,"time_elapsed":335561,"internal_node_id":"0.0-15.0"},{"type":"card_game","game_type":"straight_flush","losers":false,"see_result":true,"my_hand":"h_2_0_1_0","opponent_hand":"h_1_1_1_0","win":true,"tie":false,"bet":2,"earnings":10,"expected_value":0.78125,"expected_earnings":7.8125,"bet_rt":1837,"block":1,"trial_type":"card_game","trial_index":16,"time_elapsed":339095,"internal_node_id":"0.0-16.0"},{"type":"card_game","game_type":"straight_flush","losers":false,"see_result":true,"my_hand":"h_0_0_1_1","opponent_hand":"h_3_0_3_0","win":true,"tie":false,"bet":2,"earnings":10,"expected_value":0.34375,"expected_earnings":3.4375,"bet_rt":1597,"block":1,"trial_type":"card_game","trial_index":17,"time_elapsed":342377,"internal_node_id":"0.0-17.0"},{"type":"card_game","game_type":"straight_flush","losers":false,"see_result":true,"my_hand":"h_3_0_0_1","opponent_hand":"h_0_0_0_1","win":true,"tie":false,"bet":1,"earnings":5,"expected_value":-0.28125,"expected_earnings":-1.40625,"bet_rt":2865,"block":1,"trial_type":"card_game","trial_index":18,"time_elapsed":346907,"internal_node_id":"0.0-18.0"},{"type":"card_game","game_type":"straight_flush","losers":false,"see_result":true,"my_hand":"h_0_1_1_1","opponent_hand":"h_2_0_2_0","win":true,"tie":false,"bet":2,"earnings":10,"expected_value":0.71875,"expected_earnings":7.1875,"bet_rt":1876,"block":1,"trial_type":"card_game","trial_index":19,"time_elapsed":350493,"internal_node_id":"0.0-19.0"},{"type":"card_game","game_type":"straight_flush","losers":false,"see_result":true,"my_hand":"h_2_0_0_0","opponent_hand":"h_2_1_1_0","win":false,"tie":false,"bet":1,"earnings":-5,"expected_value":-0.71875,"expected_earnings":-3.59375,"bet_rt":2950,"block":1,"trial_type":"card_game","trial_index":20,"time_elapsed":355106,"internal_node_id":"0.0-20.0"},{"type":"card_game","game_type":"straight_flush","losers":false,"see_result":true,"my_hand":"h_1_0_1_0","opponent_hand":"h_3_0_1_0","win":false,"tie":false,"bet":0,"earnings":0,"expected_value":-0.859375,"expected_earnings":0,"bet_rt":3700,"block":1,"trial_type":"card_game","trial_index":21,"time_elapsed":360503,"internal_node_id":"0.0-21.0"},{"type":"card_game","game_type":"straight_flush","losers":false,"see_result":true,"my_hand":"h_1_1_0_1","opponent_hand":"h_1_1_3_1","win":true,"tie":false,"bet":2,"earnings":10,"expected_value":0.71875,"expected_earnings":7.1875,"bet_rt":1618,"block":1,"trial_type":"card_game","trial_index":22,"time_elapsed":363820,"internal_node_id":"0.0-22.0"},{"type":"card_game","game_type":"straight_flush","losers":false,"see_result":true,"my_hand":"h_0_0_2_0","opponent_hand":"h_0_1_3_1","win":false,"tie":false,"bet":1,"earnings":-5,"expected_value":-0.71875,"expected_earnings":-3.59375,"bet_rt":3068,"block":1,"trial_type":"card_game","trial_index":23,"time_elapsed":368567,"internal_node_id":"0.0-23.0"},{"type":"card_game","game_type":"straight_flush","losers":false,"see_result":true,"my_hand":"h_1_0_3_1","opponent_hand":"h_2_1_0_0","win":true,"tie":false,"bet":1,"earnings":5,"expected_value":0.03125,"expected_earnings":0.15625,"bet_rt":2475,"block":1,"trial_type":"card_game","trial_index":24,"time_elapsed":372718,"internal_node_id":"0.0-24.0"},{"type":"card_game","game_type":"straight_flush","losers":false,"see_result":true,"my_hand":"h_2_0_2_0","opponent_hand":"h_2_1_0_1","win":true,"tie":false,"bet":1,"earnings":5,"expected_value":-0.484375,"expected_earnings":-2.421875,"bet_rt":2461,"block":1,"trial_type":"card_game","trial_index":25,"time_elapsed":376847,"internal_node_id":"0.0-25.0"},{"type":"card_game","game_type":"straight_flush","losers":false,"see_result":true,"my_hand":"h_2_0_1_1","opponent_hand":"h_2_1_3_1","win":false,"tie":false,"bet":2,"earnings":-10,"expected_value":0.40625,"expected_earnings":4.0625,"bet_rt":1180,"block":1,"trial_type":"card_game","trial_index":26,"time_elapsed":379713,"internal_node_id":"0.0-26.0"},{"type":"card_game","game_type":"straight_flush","losers":false,"see_result":true,"my_hand":"h_2_0_3_1","opponent_hand":"h_0_1_2_0","win":true,"tie":false,"bet":2,"earnings":10,"expected_value":0.59375,"expected_earnings":5.9375,"bet_rt":1046,"block":1,"trial_type":"card_game","trial_index":27,"time_elapsed":382433,"internal_node_id":"0.0-27.0"},{"type":"card_game","game_type":"straight_flush","losers":false,"see_result":true,"my_hand":"h_0_0_2_1","opponent_hand":"h_0_1_0_1","win":true,"tie":false,"bet":1,"earnings":5,"expected_value":-0.59375,"expected_earnings":-2.96875,"bet_rt":2930,"block":1,"trial_type":"card_game","trial_index":28,"time_elapsed":387061,"internal_node_id":"0.0-28.0"},{"type":"card_game","game_type":"straight_flush","losers":false,"see_result":true,"my_hand":"h_3_1_0_0","opponent_hand":"h_0_1_3_1","win":false,"tie":false,"bet":1,"earnings":-5,"expected_value":-0.21875,"expected_earnings":-1.09375,"bet_rt":1199,"block":1,"trial_type":"card_game","trial_index":29,"time_elapsed":389927,"internal_node_id":"0.0-29.0"},{"type":"card_game","game_type":"straight_flush","losers":false,"see_result":true,"my_hand":"h_1_0_3_1","opponent_hand":"h_0_0_2_0","win":true,"tie":false,"bet":1,"earnings":5,"expected_value":0.03125,"expected_earnings":0.15625,"bet_rt":2032,"block":1,"trial_type":"card_game","trial_index":30,"time_elapsed":393644,"internal_node_id":"0.0-30.0"},{"type":"card_game","game_type":"straight_flush","losers":false,"see_result":true,"my_hand":"h_1_0_3_0","opponent_hand":"h_0_0_1_1","win":false,"tie":false,"bet":1,"earnings":-5,"expected_value":-0.09375,"expected_earnings":-0.46875,"bet_rt":1234,"block":1,"trial_type":"card_game","trial_index":31,"time_elapsed":396549,"internal_node_id":"0.0-31.0"},{"type":"card_game","game_type":"straight_flush","losers":false,"see_result":true,"my_hand":"h_2_0_3_1","opponent_hand":"h_2_0_2_0","win":true,"tie":false,"bet":2,"earnings":10,"expected_value":0.59375,"expected_earnings":5.9375,"bet_rt":1225,"block":1,"trial_type":"card_game","trial_index":32,"time_elapsed":399444,"internal_node_id":"0.0-32.0"},{"type":"card_game","game_type":"straight_flush","losers":false,"see_result":true,"my_hand":"h_0_0_1_1","opponent_hand":"h_2_1_2_0","win":true,"tie":false,"bet":2,"earnings":10,"expected_value":0.34375,"expected_earnings":3.4375,"bet_rt":1115,"block":1,"trial_type":"card_game","trial_index":33,"time_elapsed":402294,"internal_node_id":"0.0-33.0"},{"type":"card_game","game_type":"straight_flush","losers":false,"see_result":true,"my_hand":"h_3_0_1_1","opponent_hand":"h_3_0_2_0","win":false,"tie":false,"bet":1,"earnings":-5,"expected_value":-0.03125,"expected_earnings":-0.15625,"bet_rt":1707,"block":1,"trial_type":"card_game","trial_index":34,"time_elapsed":405678,"internal_node_id":"0.0-34.0"},{"type":"card_game","game_type":"straight_flush","losers":false,"see_result":true,"my_hand":"h_2_0_1_0","opponent_hand":"h_1_0_0_1","win":true,"tie":false,"bet":2,"earnings":10,"expected_value":0.78125,"expected_earnings":7.8125,"bet_rt":1975,"block":1,"trial_type":"card_game","trial_index":35,"time_elapsed":409324,"internal_node_id":"0.0-35.0"},{"type":"card_game","game_type":"straight_flush","losers":false,"see_result":true,"my_hand":"h_2_1_3_1","opponent_hand":"h_1_0_1_1","win":true,"tie":false,"bet":2,"earnings":10,"expected_value":0.96875,"expected_earnings":9.6875,"bet_rt":686,"block":1,"trial_type":"card_game","trial_index":36,"time_elapsed":411671,"internal_node_id":"0.0-36.0"},{"type":"card_game","game_type":"straight_flush","losers":false,"see_result":true,"my_hand":"h_2_1_2_1","opponent_hand":"h_2_1_2_0","win":true,"tie":false,"bet":1,"earnings":5,"expected_value":-0.390625,"expected_earnings":-1.953125,"bet_rt":2015,"block":1,"trial_type":"card_game","trial_index":37,"time_elapsed":415383,"internal_node_id":"0.0-37.0"},{"type":"card_game","game_type":"straight_flush","losers":false,"see_result":true,"my_hand":"h_0_0_0_0","opponent_hand":"h_2_1_0_0","win":false,"tie":false,"bet":0,"earnings":0,"expected_value":-0.984375,"expected_earnings":0,"bet_rt":1900,"block":1,"trial_type":"card_game","trial_index":38,"time_elapsed":418955,"internal_node_id":"0.0-38.0"},{"rt":3498.424999997951,"stimulus":"<p>You earned a performance bonus of 110 cents on this set of trials, plus $1.50 for making it to this phase.</p><p>Press any key to continue.</p>","key_press":32,"trial_type":"html-keyboard-response","trial_index":39,"time_elapsed":422462,"internal_node_id":"0.0-39.0"},{"rt":4030.1949999993667,"stimulus":"<p>To test how well you understand the game, we'll now give you a series of hands where you won't see your results after you bet. You will just see your earnings at the end of the set of hands.</p><p>Press any key to continue.</p>","key_press":32,"trial_type":"html-keyboard-response","trial_index":40,"time_elapsed":426494,"internal_node_id":"0.0-40.0"},{"type":"card_game","game_type":"straight_flush","losers":false,"see_result":false,"my_hand":"h_3_1_1_0","opponent_hand":"h_1_1_0_0","win":false,"tie":false,"bet":1,"earnings":-5,"expected_value":0.03125,"expected_earnings":0.15625,"bet_rt":3277,"block":2,"trial_type":"card_game","trial_index":41,"time_elapsed":430273,"internal_node_id":"0.0-41.0"},{"type":"card_game","game_type":"straight_flush","losers":false,"see_result":false,"my_hand":"h_1_0_2_1","opponent_hand":"h_1_1_1_0","win":true,"tie":false,"bet":2,"earnings":10,"expected_value":0.46875,"expected_earnings":4.6875,"bet_rt":1879,"block":2,"trial_type":"card_game","trial_index":42,"time_elapsed":432654,"internal_node_id":"0.0-42.0"},{"type":"card_game","game_type":"straight_flush","losers":false,"see_result":false,"my_hand":"h_1_0_0_1","opponent_hand":"h_1_0_2_0","win":false,"tie":false,"bet":2,"earnings":-10,"expected_value":0.28125,"expected_earnings":2.8125,"bet_rt":1775,"block":2,"trial_type":"card_game","trial_index":43,"time_elapsed":434933,"internal_node_id":"0.0-43.0"},{"type":"card_game","game_type":"straight_flush","losers":false,"see_result":false,"my_hand":"h_0_1_0_0","opponent_hand":"h_0_0_2_1","win":false,"tie":false,"bet":0,"earnings":0,"expected_value":-0.9375,"expected_earnings":0,"bet_rt":1456,"block":2,"trial_type":"card_game","trial_index":44,"time_elapsed":436891,"internal_node_id":"0.0-44.0"},{"type":"card_game","game_type":"straight_flush","losers":false,"see_result":false,"my_hand":"h_0_0_3_1","opponent_hand":"h_3_1_2_1","win":false,"tie":false,"bet":1,"earnings":-5,"expected_value":-0.21875,"expected_earnings":-1.09375,"bet_rt":2588,"block":2,"trial_type":"card_game","trial_index":45,"time_elapsed":439981,"internal_node_id":"0.0-45.0"},{"type":"card_game","game_type":"straight_flush","losers":false,"see_result":false,"my_hand":"h_0_1_1_1","opponent_hand":"h_3_1_2_0","win":true,"tie":false,"bet":2,"earnings":10,"expected_value":0.71875,"expected_earnings":7.1875,"bet_rt":1832,"block":2,"trial_type":"card_game","trial_index":46,"time_elapsed":442315,"internal_node_id":"0.0-46.0"},{"type":"card_game","game_type":"straight_flush","losers":false,"see_result":false,"my_hand":"h_0_0_2_1","opponent_hand":"h_3_1_0_1","win":false,"tie":false,"bet":0,"earnings":0,"expected_value":-0.59375,"expected_earnings":0,"bet_rt":2243,"block":2,"trial_type":"card_game","trial_index":47,"time_elapsed":445062,"internal_node_id":"0.0-47.0"},{"type":"card_game","game_type":"straight_flush","losers":false,"see_result":false,"my_hand":"h_0_0_2_0","opponent_hand":"h_1_1_1_1","win":true,"tie":false,"bet":0,"earnings":0,"expected_value":-0.71875,"expected_earnings":0,"bet_rt":1845,"block":2,"trial_type":"card_game","trial_index":48,"time_elapsed":447409,"internal_node_id":"0.0-48.0"},{"type":"card_game","game_type":"straight_flush","losers":false,"see_result":false,"my_hand":"h_2_1_2_1","opponent_hand":"h_3_0_0_1","win":false,"tie":false,"bet":1,"earnings":-5,"expected_value":-0.390625,"expected_earnings":-1.953125,"bet_rt":2512,"block":2,"trial_type":"card_game","trial_index":49,"time_elapsed":450423,"internal_node_id":"0.0-49.0"},{"type":"card_game","game_type":"straight_flush","losers":false,"see_result":false,"my_hand":"h_0_1_0_1","opponent_hand":"h_0_1_3_1","win":false,"tie":false,"bet":0,"earnings":0,"expected_value":-0.890625,"expected_earnings":0,"bet_rt":1424,"block":2,"trial_type":"card_game","trial_index":50,"time_elapsed":452349,"internal_node_id":"0.0-50.0"},{"type":"card_game","game_type":"straight_flush","losers":false,"see_result":false,"my_hand":"h_0_0_1_0","opponent_hand":"h_3_0_1_1","win":true,"tie":false,"bet":2,"earnings":10,"expected_value":0.65625,"expected_earnings":6.5625,"bet_rt":1554,"block":2,"trial_type":"card_game","trial_index":51,"time_elapsed":454405,"internal_node_id":"0.0-51.0"},{"type":"card_game","game_type":"straight_flush","losers":false,"see_result":false,"my_hand":"h_3_0_3_1","opponent_hand":"h_1_0_3_0","win":true,"tie":false,"bet":1,"earnings":5,"expected_value":0.1875,"expected_earnings":0.9375,"bet_rt":1713,"block":2,"trial_type":"card_game","trial_index":52,"time_elapsed":456619,"internal_node_id":"0.0-52.0"},{"type":"card_game","game_type":"straight_flush","losers":false,"see_result":false,"my_hand":"h_3_0_2_1","opponent_hand":"h_3_1_2_1","win":false,"tie":false,"bet":2,"earnings":-10,"expected_value":0.53125,"expected_earnings":5.3125,"bet_rt":1262,"block":2,"trial_type":"card_game","trial_index":53,"time_elapsed":458384,"internal_node_id":"0.0-53.0"},{"type":"card_game","game_type":"straight_flush","losers":false,"see_result":false,"my_hand":"h_1_1_1_0","opponent_hand":"h_0_1_2_1","win":false,"tie":false,"bet":0,"earnings":0,"expected_value":-0.8125,"expected_earnings":0,"bet_rt":1657,"block":2,"trial_type":"card_game","trial_index":54,"time_elapsed":460545,"internal_node_id":"0.0-54.0"},{"type":"card_game","game_type":"straight_flush","losers":false,"see_result":false,"my_hand":"h_1_1_0_0","opponent_hand":"h_3_0_1_1","win":true,"tie":false,"bet":2,"earnings":10,"expected_value":0.34375,"expected_earnings":3.4375,"bet_rt":1978,"block":2,"trial_type":"card_game","trial_index":55,"time_elapsed":463025,"internal_node_id":"0.0-55.0"},{"type":"card_game","game_type":"straight_flush","losers":false,"see_result":false,"my_hand":"h_2_0_1_0","opponent_hand":"h_3_1_2_0","win":true,"tie":false,"bet":2,"earnings":10,"expected_value":0.78125,"expected_earnings":7.8125,"bet_rt":1200,"block":2,"trial_type":"card_game","trial_index":56,"time_elapsed":464729,"internal_node_id":"0.0-56.0"},{"type":"card_game","game_type":"straight_flush","losers":false,"see_result":false,"my_hand":"h_3_1_0_1","opponent_hand":"h_0_1_3_1","win":false,"tie":true,"bet":1,"earnings":0,"expected_value":-0.15625,"expected_earnings":-0.78125,"bet_rt":1682,"block":2,"trial_type":"card_game","trial_index":57,"time_elapsed":466914,"internal_node_id":"0.0-57.0"},{"type":"card_game","game_type":"straight_flush","losers":false,"see_result":false,"my_hand":"h_2_0_2_0","opponent_hand":"h_3_0_3_0","win":false,"tie":false,"bet":1,"earnings":-5,"expected_value":-0.484375,"expected_earnings":-2.421875,"bet_rt":1423,"block":2,"trial_type":"card_game","trial_index":58,"time_elapsed":468840,"internal_node_id":"0.0-58.0"},{"type":"card_game","game_type":"straight_flush","losers":false,"see_result":false,"my_hand":"h_2_0_2_1","opponent_hand":"h_1_0_0_1","win":false,"tie":false,"bet":1,"earnings":-5,"expected_value":-0.4375,"expected_earnings":-2.1875,"bet_rt":1002,"block":2,"trial_type":"card_game","trial_index":59,"time_elapsed":470345,"internal_node_id":"0.0-59.0"},{"type":"card_game","game_type":"straight_flush","losers":false,"see_result":false,"my_hand":"h_1_1_3_1","opponent_hand":"h_2_1_2_0","win":true,"tie":false,"bet":1,"earnings":5,"expected_value":0.09375,"expected_earnings":0.46875,"bet_rt":1474,"block":2,"trial_type":"card_game","trial_index":60,"time_elapsed":472321,"internal_node_id":"0.0-60.0"},{"type":"card_game","game_type":"straight_flush","losers":false,"see_result":false,"my_hand":"h_3_1_0_1","opponent_hand":"h_0_1_0_0","win":true,"tie":false,"bet":1,"earnings":5,"expected_value":-0.15625,"expected_earnings":-0.78125,"bet_rt":1636,"block":2,"trial_type":"card_game","trial_index":61,"time_elapsed":474460,"internal_node_id":"0.0-61.0"},{"type":"card_game","game_type":"straight_flush","losers":false,"see_result":false,"my_hand":"h_0_1_2_1","opponent_hand":"h_2_1_1_0","win":false,"tie":false,"bet":0,"earnings":0,"expected_value":-0.53125,"expected_earnings":0,"bet_rt":2798,"block":2,"trial_type":"card_game","trial_index":62,"time_elapsed":477763,"internal_node_id":"0.0-62.0"},{"type":"card_game","game_type":"straight_flush","losers":false,"see_result":false,"my_hand":"h_2_0_1_0","opponent_hand":"h_3_0_2_0","win":false,"tie":false,"bet":2,"earnings":-10,"expected_value":0.78125,"expected_earnings":7.8125,"bet_rt":1227,"block":2,"trial_type":"card_game","trial_index":63,"time_elapsed":479493,"internal_node_id":"0.0-63.0"},{"type":"card_game","game_type":"straight_flush","losers":false,"see_result":false,"my_hand":"h_2_1_1_1","opponent_hand":"h_1_1_0_0","win":true,"tie":false,"bet":2,"earnings":10,"expected_value":0.84375,"expected_earnings":8.4375,"bet_rt":691,"block":2,"trial_type":"card_game","trial_index":64,"time_elapsed":480687,"internal_node_id":"0.0-64.0"},{"rt":8867.609999986598,"stimulus":"<p>You earned a performance bonus of 50 cents on this set of trials.</p><p>You have earned a performance bonus of 160 cents over the experiment so far, plus $1.50 for making it to this phase.</p><p>Press any key to continue.</p>","key_press":32,"trial_type":"html-keyboard-response","trial_index":65,"time_elapsed":489599,"internal_node_id":"0.0-65.0"},{"rt":8810.570000001462,"stimulus":"<p><font color='red'><b>Now, we want you to try to lose the game! For the remainder of the experiment, if you bet and lose, you'll gain the amount you bet, and if you bet and win, you'll lose the amount you bet.</b></font></p><p>As before, you won't win or lose anything if you tie your opponent, or if you don't bet.</p><p>Press any key to continue.</p>","key_press":32,"trial_type":"html-keyboard-response","trial_index":66,"time_elapsed":498411,"internal_node_id":"0.0-66.0"},{"rt":5949.350000009872,"responses":"{\"Q0\":\"Bet and my hand loses.\"}","question_order":"[0]","response_trial_type":"attention_check","trial_type":"survey-multi-choice","trial_index":67,"time_elapsed":504367,"internal_node_id":"0.0-67.0"},{"rt":1504.755000001751,"stimulus":"<p>Great, now you get to play a few hands!</p><p>As before, you won't see your results after you bet. You will just see your earnings at the end of the set of hands.</p><p>Press any key to continue.</p>","key_press":32,"trial_type":"html-keyboard-response","trial_index":68,"time_elapsed":505876,"internal_node_id":"0.0-68.0"},{"type":"card_game","game_type":"straight_flush","losers":true,"see_result":false,"my_hand":"h_1_1_3_1","opponent_hand":"h_0_1_0_0","win":false,"tie":false,"bet":0,"earnings":0,"expected_value":-0.09375,"expected_earnings":0,"bet_rt":5979,"block":3,"trial_type":"card_game","trial_index":69,"time_elapsed":512357,"internal_node_id":"0.0-69.0"},{"type":"card_game","game_type":"straight_flush","losers":true,"see_result":false,"my_hand":"h_0_0_2_0","opponent_hand":"h_0_1_0_0","win":false,"tie":false,"bet":1,"earnings":-5,"expected_value":0.71875,"expected_earnings":3.59375,"bet_rt":8737,"block":3,"trial_type":"card_game","trial_index":70,"time_elapsed":521597,"internal_node_id":"0.0-70.0"},{"type":"card_game","game_type":"straight_flush","losers":true,"see_result":false,"my_hand":"h_3_1_3_0","opponent_hand":"h_2_1_3_0","win":true,"tie":false,"bet":0,"earnings":0,"expected_value":-0.1875,"expected_earnings":0,"bet_rt":2002,"block":3,"trial_type":"card_game","trial_index":71,"time_elapsed":524101,"internal_node_id":"0.0-71.0"},{"type":"card_game","game_type":"straight_flush","losers":true,"see_result":false,"my_hand":"h_3_0_1_1","opponent_hand":"h_3_1_1_1","win":true,"tie":false,"bet":0,"earnings":0,"expected_value":0.03125,"expected_earnings":0,"bet_rt":2215,"block":3,"trial_type":"card_game","trial_index":72,"time_elapsed":526819,"internal_node_id":"0.0-72.0"},{"type":"card_game","game_type":"straight_flush","losers":true,"see_result":false,"my_hand":"h_1_0_0_0","opponent_hand":"h_1_0_2_1","win":false,"tie":false,"bet":0,"earnings":0,"expected_value":-0.65625,"expected_earnings":0,"bet_rt":2704,"block":3,"trial_type":"card_game","trial_index":73,"time_elapsed":530025,"internal_node_id":"0.0-73.0"},{"type":"card_game","game_type":"straight_flush","losers":true,"see_result":false,"my_hand":"h_0_0_0_1","opponent_hand":"h_1_1_2_1","win":true,"tie":false,"bet":2,"earnings":10,"expected_value":0.9375,"expected_earnings":9.375,"bet_rt":1807,"block":3,"trial_type":"card_game","trial_index":74,"time_elapsed":532336,"internal_node_id":"0.0-74.0"},{"type":"card_game","game_type":"straight_flush","losers":true,"see_result":false,"my_hand":"h_2_1_2_1","opponent_hand":"h_2_1_2_1","win":false,"tie":true,"bet":2,"earnings":0,"expected_value":0.390625,"expected_earnings":3.90625,"bet_rt":4009,"block":3,"trial_type":"card_game","trial_index":75,"time_elapsed":536848,"internal_node_id":"0.0-75.0"},{"type":"card_game","game_type":"straight_flush","losers":true,"see_result":false,"my_hand":"h_0_1_3_1","opponent_hand":"h_0_0_3_0","win":false,"tie":false,"bet":0,"earnings":0,"expected_value":0.15625,"expected_earnings":0,"bet_rt":3055,"block":3,"trial_type":"card_game","trial_index":76,"time_elapsed":540405,"internal_node_id":"0.0-76.0"},{"type":"card_game","game_type":"straight_flush","losers":true,"see_result":false,"my_hand":"h_2_1_0_1","opponent_hand":"h_3_1_2_0","win":true,"tie":false,"bet":1,"earnings":5,"expected_value":0.53125,"expected_earnings":2.65625,"bet_rt":2012,"block":3,"trial_type":"card_game","trial_index":77,"time_elapsed":542921,"internal_node_id":"0.0-77.0"},{"type":"card_game","game_type":"straight_flush","losers":true,"see_result":false,"my_hand":"h_1_1_2_1","opponent_hand":"h_3_0_3_0","win":false,"tie":false,"bet":0,"earnings":0,"expected_value":-0.84375,"expected_earnings":0,"bet_rt":1939,"block":3,"trial_type":"card_game","trial_index":78,"time_elapsed":545362,"internal_node_id":"0.0-78.0"},{"type":"card_game","game_type":"straight_flush","losers":true,"see_result":false,"my_hand":"h_1_0_0_1","opponent_hand":"h_1_0_1_0","win":false,"tie":false,"bet":0,"earnings":0,"expected_value":-0.28125,"expected_earnings":0,"bet_rt":1510,"block":3,"trial_type":"card_game","trial_index":79,"time_elapsed":547375,"internal_node_id":"0.0-79.0"},{"type":"card_game","game_type":"straight_flush","losers":true,"see_result":false,"my_hand":"h_3_1_2_1","opponent_hand":"h_3_1_3_1","win":false,"tie":false,"bet":0,"earnings":0,"expected_value":-0.96875,"expected_earnings":0,"bet_rt":2036,"block":3,"trial_type":"card_game","trial_index":80,"time_elapsed":549913,"internal_node_id":"0.0-80.0"},{"type":"card_game","game_type":"straight_flush","losers":true,"see_result":false,"my_hand":"h_0_1_1_1","opponent_hand":"h_1_0_1_1","win":false,"tie":false,"bet":0,"earnings":0,"expected_value":-0.71875,"expected_earnings":0,"bet_rt":1449,"block":3,"trial_type":"card_game","trial_index":81,"time_elapsed":551864,"internal_node_id":"0.0-81.0"},{"type":"card_game","game_type":"straight_flush","losers":true,"see_result":false,"my_hand":"h_0_0_0_0","opponent_hand":"h_1_1_2_0","win":true,"tie":false,"bet":2,"earnings":10,"expected_value":0.984375,"expected_earnings":9.84375,"bet_rt":1462,"block":3,"trial_type":"card_game","trial_index":82,"time_elapsed":553829,"internal_node_id":"0.0-82.0"},{"type":"card_game","game_type":"straight_flush","losers":true,"see_result":false,"my_hand":"h_3_1_0_1","opponent_hand":"h_0_1_2_0","win":false,"tie":false,"bet":1,"earnings":-5,"expected_value":0.15625,"expected_earnings":0.78125,"bet_rt":3416,"block":3,"trial_type":"card_game","trial_index":83,"time_elapsed":557747,"internal_node_id":"0.0-83.0"},{"type":"card_game","game_type":"straight_flush","losers":true,"see_result":false,"my_hand":"h_1_0_0_0","opponent_hand":"h_1_1_1_0","win":false,"tie":false,"bet":0,"earnings":0,"expected_value":-0.65625,"expected_earnings":0,"bet_rt":1566,"block":3,"trial_type":"card_game","trial_index":84,"time_elapsed":559815,"internal_node_id":"0.0-84.0"},{"type":"card_game","game_type":"straight_flush","losers":true,"see_result":false,"my_hand":"h_1_1_3_1","opponent_hand":"h_1_1_1_1","win":false,"tie":false,"bet":0,"earnings":0,"expected_value":-0.09375,"expected_earnings":0,"bet_rt":2231,"block":3,"trial_type":"card_game","trial_index":85,"time_elapsed":562549,"internal_node_id":"0.0-85.0"},{"type":"card_game","game_type":"straight_flush","losers":true,"see_result":false,"my_hand":"h_3_1_2_1","opponent_hand":"h_2_1_1_1","win":false,"tie":false,"bet":0,"earnings":0,"expected_value":-0.96875,"expected_earnings":0,"bet_rt":1411,"block":3,"trial_type":"card_game","trial_index":86,"time_elapsed":564463,"internal_node_id":"0.0-86.0"},{"type":"card_game","game_type":"straight_flush","losers":true,"see_result":false,"my_hand":"h_1_1_2_0","opponent_hand":"h_0_1_3_0","win":false,"tie":false,"bet":0,"earnings":0,"expected_value":-0.40625,"expected_earnings":0,"bet_rt":2117,"block":3,"trial_type":"card_game","trial_index":87,"time_elapsed":567083,"internal_node_id":"0.0-87.0"},{"type":"card_game","game_type":"straight_flush","losers":true,"see_result":false,"my_hand":"h_3_0_0_0","opponent_hand":"h_0_0_1_1","win":true,"tie":false,"bet":1,"earnings":5,"expected_value":0.34375,"expected_earnings":1.71875,"bet_rt":2874,"block":3,"trial_type":"card_game","trial_index":88,"time_elapsed":570460,"internal_node_id":"0.0-88.0"},{"type":"card_game","game_type":"straight_flush","losers":true,"see_result":false,"my_hand":"h_2_1_0_0","opponent_hand":"h_3_0_1_1","win":true,"tie":false,"bet":2,"earnings":10,"expected_value":0.59375,"expected_earnings":5.9375,"bet_rt":3792,"block":3,"trial_type":"card_game","trial_index":89,"time_elapsed":574755,"internal_node_id":"0.0-89.0"},{"type":"card_game","game_type":"straight_flush","losers":true,"see_result":false,"my_hand":"h_2_1_2_0","opponent_hand":"h_1_1_2_1","win":true,"tie":false,"bet":1,"earnings":5,"expected_value":0.4375,"expected_earnings":2.1875,"bet_rt":4413,"block":3,"trial_type":"card_game","trial_index":90,"time_elapsed":579670,"internal_node_id":"0.0-90.0"},{"type":"card_game","game_type":"straight_flush","losers":true,"see_result":false,"my_hand":"h_1_0_2_1","opponent_hand":"h_1_0_0_0","win":true,"tie":false,"bet":0,"earnings":0,"expected_value":-0.46875,"expected_earnings":0,"bet_rt":1159,"block":3,"trial_type":"card_game","trial_index":91,"time_elapsed":581331,"internal_node_id":"0.0-91.0"},{"type":"card_game","game_type":"straight_flush","losers":true,"see_result":false,"my_hand":"h_1_0_1_0","opponent_hand":"h_3_0_0_1","win":true,"tie":false,"bet":2,"earnings":10,"expected_value":0.859375,"expected_earnings":8.59375,"bet_rt":1851,"block":3,"trial_type":"card_game","trial_index":92,"time_elapsed":583684,"internal_node_id":"0.0-92.0"},{"rt":4815.214999980526,"stimulus":"<p>You earned a performance bonus of 50 cents on this set of trials.</p><p>You have earned a performance bonus of 210 cents over the experiment so far, plus $1.50 for making it to this phase.</p><p>Press any key to continue.</p>","key_press":32,"trial_type":"html-keyboard-response","trial_index":93,"time_elapsed":588502,"internal_node_id":"0.0-93.0"},{"rt":1387.3149999999441,"stimulus":"<p>Great, we just have a few questions to ask you and then you'll be finished!</p><p>Press any key to continue.</p>","key_press":32,"trial_type":"html-keyboard-response","trial_index":94,"time_elapsed":589891,"internal_node_id":"0.0-94.0"},{"rt":9315.945000009378,"responses":"{\"Q0\":4,\"Q1\":3,\"Q2\":2}","question_order":"[0,1,2]","response_trial_type":"debrief","trial_type":"survey-likert","trial_index":95,"time_elapsed":599213,"internal_node_id":"0.0-95.0"},{"rt":10989.290000026813,"responses":"{\"Q0\":\"45-55\",\"Q1\":\"Associates or other two-year degree\",\"Q2\":\"Female\",\"Q3\":\"Asian\"}","question_order":"[0,1,2,3]","response_trial_type":"demographics","trial_type":"survey-multi-choice","trial_index":96,"time_elapsed":610209,"internal_node_id":"0.0-96.0"},{"rt":2651.0100000014063,"responses":"{\"Q0\":\"no\"}","response_trial_type":"comments","trial_type":"survey-text","trial_index":97,"time_elapsed":612991,"internal_node_id":"0.0-97.0"}]