[{"view_history":"[{\"page_index\":0,\"viewing_time\":4639.1749999602325},{\"page_index\":1,\"viewing_time\":6543.349999992643},{\"page_index\":2,\"viewing_time\":5655.490000033751},{\"page_index\":3,\"viewing_time\":31312.129999976605},{\"page_index\":4,\"viewing_time\":19904.15000001667},{\"page_index\":5,\"viewing_time\":10072.274999984074},{\"page_index\":6,\"viewing_time\":7064.260000013746}]","rt":85192.43999995524,"trial_type":"instructions","trial_index":0,"time_elapsed":85445,"internal_node_id":"0.0-0.0"},{"type":"hand_comparison","hand_win":"h_1_0_2_1","hand_lose":"h_3_0_0_0","explanation":"Adjacent cards beat non-adjacent.","hand_indices":[1,0],"hand_choice":1,"correct":true,"rt":4776,"trial_type":"hand_comparison","trial_index":1,"time_elapsed":92227,"internal_node_id":"0.0-1.0"},{"type":"hand_comparison","hand_win":"h_0_0_1_0","hand_lose":"h_3_0_2_1","explanation":"Same-suit adjacent beats different suit.","hand_indices":[1,0],"hand_choice":1,"correct":true,"rt":4151,"trial_type":"hand_comparison","trial_index":2,"time_elapsed":98384,"internal_node_id":"0.0-2.0"},{"type":"hand_comparison","hand_win":"h_3_0_0_1","hand_lose":"h_2_0_2_1","explanation":"Highest card breaks ties.","hand_indices":[1,0],"hand_choice":1,"correct":true,"rt":3773,"trial_type":"hand_comparison","trial_index":3,"time_elapsed":104159,"internal_node_id":"0.0-3.0"},{"type":"hand_comparison","hand_win":"h_3_1_2_1","hand_lose":"h_2_0_3_0","explanation":"Black cards beat red cards if the numbers are tied.","hand_indices":[0,1],"hand_choice":0,"correct":true,"rt":11703,"trial_type":"hand_comparison","trial_index":4,"time_elapsed":117864,"internal_node_id":"0.0-4.0"},{"rt":7600.869999965653,"stimulus":"<p><b>Congratulations, you passed the test, and will get to proceed to phase 2!</b></p><p>You have earned a $1.50 bonus, and will be awarded a performance bonus based on your bets in the next phase.</p><p>Press any key to continue.</p>","key_press":70,"trial_type":"html-keyboard-response","trial_index":5,"time_elapsed":125468,"internal_node_id":"0.0-5.0"},{"rt":3008.894999977201,"stimulus":"<p>Now you get to play a few hands. After you bet, we'll show you your opponent's hand and how much you won (or lost), and at the end of these hands we'll tell you your total earnings.</p><p>Press any key to continue.</p>","key_press":70,"trial_type":"html-keyboard-response","trial_index":6,"time_elapsed":128477,"internal_node_id":"0.0-6.0"},{"type":"card_game","game_type":"straight_flush","losers":false,"see_result":true,"my_hand":"h_2_0_1_1","opponent_hand":"h_3_0_2_0","win":false,"tie":false,"bet":2,"earnings":-10,"expected_value":0.40625,"expected_earnings":4.0625,"bet_rt":3388,"block":1,"trial_type":"card_game","trial_index":7,"time_elapsed":133425,"internal_node_id":"0.0-7.0"},{"type":"card_game","game_type":"straight_flush","losers":false,"see_result":true,"my_hand":"h_1_0_3_1","opponent_hand":"h_1_0_1_0","win":true,"tie":false,"bet":0,"earnings":0,"expected_value":0.03125,"expected_earnings":0,"bet_rt":7370,"block":1,"trial_type":"card_game","trial_index":8,"time_elapsed":142361,"internal_node_id":"0.0-8.0"},{"type":"card_game","game_type":"straight_flush","losers":false,"see_result":true,"my_hand":"h_0_0_2_1","opponent_hand":"h_2_0_2_0","win":false,"tie":false,"bet":1,"earnings":-5,"expected_value":-0.59375,"expected_earnings":-2.96875,"bet_rt":3351,"block":1,"trial_type":"card_game","trial_index":9,"time_elapsed":147277,"internal_node_id":"0.0-9.0"},{"type":"card_game","game_type":"straight_flush","losers":false,"see_result":true,"my_hand":"h_2_0_0_0","opponent_hand":"h_0_1_0_0","win":true,"tie":false,"bet":1,"earnings":5,"expected_value":-0.71875,"expected_earnings":-3.59375,"bet_rt":3508,"block":1,"trial_type":"card_game","trial_index":10,"time_elapsed":152346,"internal_node_id":"0.0-10.0"},{"type":"card_game","game_type":"straight_flush","losers":false,"see_result":true,"my_hand":"h_2_0_0_0","opponent_hand":"h_0_0_3_0","win":false,"tie":false,"bet":1,"earnings":-5,"expected_value":-0.71875,"expected_earnings":-3.59375,"bet_rt":3034,"block":1,"trial_type":"card_game","trial_index":11,"time_elapsed":156937,"internal_node_id":"0.0-11.0"},{"type":"card_game","game_type":"straight_flush","losers":false,"see_result":true,"my_hand":"h_1_0_0_0","opponent_hand":"h_3_1_3_1","win":true,"tie":false,"bet":2,"earnings":10,"expected_value":0.65625,"expected_earnings":6.5625,"bet_rt":1560,"block":1,"trial_type":"card_game","trial_index":12,"time_elapsed":160068,"internal_node_id":"0.0-12.0"},{"type":"card_game","game_type":"straight_flush","losers":false,"see_result":true,"my_hand":"h_3_1_0_1","opponent_hand":"h_0_0_1_0","win":false,"tie":false,"bet":2,"earnings":-10,"expected_value":-0.15625,"expected_earnings":-1.5625,"bet_rt":2683,"block":1,"trial_type":"card_game","trial_index":13,"time_elapsed":164305,"internal_node_id":"0.0-13.0"},{"type":"card_game","game_type":"straight_flush","losers":false,"see_result":true,"my_hand":"h_1_0_1_1","opponent_hand":"h_3_1_3_0","win":false,"tie":false,"bet":1,"earnings":-5,"expected_value":-0.8125,"expected_earnings":-4.0625,"bet_rt":2130,"block":1,"trial_type":"card_game","trial_index":14,"time_elapsed":167993,"internal_node_id":"0.0-14.0"},{"type":"card_game","game_type":"straight_flush","losers":false,"see_result":true,"my_hand":"h_1_0_2_1","opponent_hand":"h_1_1_2_0","win":true,"tie":false,"bet":2,"earnings":10,"expected_value":0.46875,"expected_earnings":4.6875,"bet_rt":2895,"block":1,"trial_type":"card_game","trial_index":15,"time_elapsed":172447,"internal_node_id":"0.0-15.0"},{"type":"card_game","game_type":"straight_flush","losers":false,"see_result":true,"my_hand":"h_2_1_1_1","opponent_hand":"h_1_0_0_0","win":true,"tie":false,"bet":2,"earnings":10,"expected_value":0.84375,"expected_earnings":8.4375,"bet_rt":1553,"block":1,"trial_type":"card_game","trial_index":16,"time_elapsed":175559,"internal_node_id":"0.0-16.0"},{"type":"card_game","game_type":"straight_flush","losers":false,"see_result":true,"my_hand":"h_0_0_1_1","opponent_hand":"h_2_0_3_0","win":false,"tie":false,"bet":2,"earnings":-10,"expected_value":0.34375,"expected_earnings":3.4375,"bet_rt":2212,"block":1,"trial_type":"card_game","trial_index":17,"time_elapsed":179318,"internal_node_id":"0.0-17.0"},{"type":"card_game","game_type":"straight_flush","losers":false,"see_result":true,"my_hand":"h_3_1_3_0","opponent_hand":"h_3_1_0_1","win":true,"tie":false,"bet":1,"earnings":5,"expected_value":0.1875,"expected_earnings":0.9375,"bet_rt":1891,"block":1,"trial_type":"card_game","trial_index":18,"time_elapsed":182769,"internal_node_id":"0.0-18.0"},{"type":"card_game","game_type":"straight_flush","losers":false,"see_result":true,"my_hand":"h_0_1_0_0","opponent_hand":"h_1_1_0_1","win":false,"tie":false,"bet":1,"earnings":-5,"expected_value":-0.9375,"expected_earnings":-4.6875,"bet_rt":2126,"block":1,"trial_type":"card_game","trial_index":19,"time_elapsed":186468,"internal_node_id":"0.0-19.0"},{"type":"card_game","game_type":"straight_flush","losers":false,"see_result":true,"my_hand":"h_2_1_1_1","opponent_hand":"h_2_1_2_1","win":true,"tie":false,"bet":2,"earnings":10,"expected_value":0.84375,"expected_earnings":8.4375,"bet_rt":1441,"block":1,"trial_type":"card_game","trial_index":20,"time_elapsed":189468,"internal_node_id":"0.0-20.0"},{"type":"card_game","game_type":"straight_flush","losers":false,"see_result":true,"my_hand":"h_0_0_3_0","opponent_hand":"h_3_0_0_1","win":false,"tie":false,"bet":1,"earnings":-5,"expected_value":-0.34375,"expected_earnings":-1.71875,"bet_rt":1627,"block":1,"trial_type":"card_game","trial_index":21,"time_elapsed":192654,"internal_node_id":"0.0-21.0"},{"type":"card_game","game_type":"straight_flush","losers":false,"see_result":true,"my_hand":"h_3_1_3_1","opponent_hand":"h_1_1_0_0","win":false,"tie":false,"bet":1,"earnings":-5,"expected_value":0.234375,"expected_earnings":1.171875,"bet_rt":1762,"block":1,"trial_type":"card_game","trial_index":22,"time_elapsed":195975,"internal_node_id":"0.0-22.0"},{"type":"card_game","game_type":"straight_flush","losers":false,"see_result":true,"my_hand":"h_2_1_0_1","opponent_hand":"h_2_0_1_1","win":false,"tie":false,"bet":1,"earnings":-5,"expected_value":-0.53125,"expected_earnings":-2.65625,"bet_rt":1929,"block":1,"trial_type":"card_game","trial_index":23,"time_elapsed":199462,"internal_node_id":"0.0-23.0"},{"type":"card_game","game_type":"straight_flush","losers":false,"see_result":true,"my_hand":"h_0_1_0_1","opponent_hand":"h_0_0_3_1","win":false,"tie":false,"bet":1,"earnings":-5,"expected_value":-0.890625,"expected_earnings":-4.453125,"bet_rt":1467,"block":1,"trial_type":"card_game","trial_index":24,"time_elapsed":202482,"internal_node_id":"0.0-24.0"},{"type":"card_game","game_type":"straight_flush","losers":false,"see_result":true,"my_hand":"h_3_1_1_1","opponent_hand":"h_3_1_1_0","win":true,"tie":false,"bet":1,"earnings":5,"expected_value":0.09375,"expected_earnings":0.46875,"bet_rt":2263,"block":1,"trial_type":"card_game","trial_index":25,"time_elapsed":206314,"internal_node_id":"0.0-25.0"},{"type":"card_game","game_type":"straight_flush","losers":false,"see_result":true,"my_hand":"h_2_0_3_1","opponent_hand":"h_2_0_1_1","win":true,"tie":false,"bet":2,"earnings":10,"expected_value":0.59375,"expected_earnings":5.9375,"bet_rt":1429,"block":1,"trial_type":"card_game","trial_index":26,"time_elapsed":209308,"internal_node_id":"0.0-26.0"},{"type":"card_game","game_type":"straight_flush","losers":false,"see_result":true,"my_hand":"h_0_1_1_1","opponent_hand":"h_3_1_2_0","win":true,"tie":false,"bet":2,"earnings":10,"expected_value":0.71875,"expected_earnings":7.1875,"bet_rt":1315,"block":1,"trial_type":"card_game","trial_index":27,"time_elapsed":212176,"internal_node_id":"0.0-27.0"},{"type":"card_game","game_type":"straight_flush","losers":false,"see_result":true,"my_hand":"h_3_0_0_0","opponent_hand":"h_0_1_2_0","win":true,"tie":false,"bet":0,"earnings":0,"expected_value":-0.34375,"expected_earnings":0,"bet_rt":1903,"block":1,"trial_type":"card_game","trial_index":28,"time_elapsed":215630,"internal_node_id":"0.0-28.0"},{"type":"card_game","game_type":"straight_flush","losers":false,"see_result":true,"my_hand":"h_2_0_2_0","opponent_hand":"h_0_0_0_1","win":true,"tie":false,"bet":0,"earnings":0,"expected_value":-0.484375,"expected_earnings":0,"bet_rt":1018,"block":1,"trial_type":"card_game","trial_index":29,"time_elapsed":218219,"internal_node_id":"0.0-29.0"},{"type":"card_game","game_type":"straight_flush","losers":false,"see_result":true,"my_hand":"h_2_0_3_0","opponent_hand":"h_3_1_0_1","win":true,"tie":false,"bet":2,"earnings":10,"expected_value":0.90625,"expected_earnings":9.0625,"bet_rt":1236,"block":1,"trial_type":"card_game","trial_index":30,"time_elapsed":221009,"internal_node_id":"0.0-30.0"},{"type":"card_game","game_type":"straight_flush","losers":false,"see_result":true,"my_hand":"h_2_1_3_1","opponent_hand":"h_3_1_0_0","win":true,"tie":false,"bet":2,"earnings":10,"expected_value":0.96875,"expected_earnings":9.6875,"bet_rt":1035,"block":1,"trial_type":"card_game","trial_index":31,"time_elapsed":223620,"internal_node_id":"0.0-31.0"},{"type":"card_game","game_type":"straight_flush","losers":false,"see_result":true,"my_hand":"h_1_0_1_0","opponent_hand":"h_0_1_2_1","win":false,"tie":false,"bet":1,"earnings":-5,"expected_value":-0.859375,"expected_earnings":-4.296875,"bet_rt":3774,"block":1,"trial_type":"card_game","trial_index":32,"time_elapsed":228946,"internal_node_id":"0.0-32.0"},{"type":"card_game","game_type":"straight_flush","losers":false,"see_result":true,"my_hand":"h_2_1_3_0","opponent_hand":"h_3_0_3_1","win":true,"tie":false,"bet":2,"earnings":10,"expected_value":0.53125,"expected_earnings":5.3125,"bet_rt":1717,"block":1,"trial_type":"card_game","trial_index":33,"time_elapsed":232218,"internal_node_id":"0.0-33.0"},{"type":"card_game","game_type":"straight_flush","losers":false,"see_result":true,"my_hand":"h_3_0_1_0","opponent_hand":"h_3_0_0_0","win":true,"tie":false,"bet":1,"earnings":5,"expected_value":-0.09375,"expected_earnings":-0.46875,"bet_rt":1621,"block":1,"trial_type":"card_game","trial_index":34,"time_elapsed":235395,"internal_node_id":"0.0-34.0"},{"type":"card_game","game_type":"straight_flush","losers":false,"see_result":true,"my_hand":"h_0_0_3_1","opponent_hand":"h_3_1_3_0","win":false,"tie":false,"bet":0,"earnings":0,"expected_value":-0.21875,"expected_earnings":0,"bet_rt":1595,"block":1,"trial_type":"card_game","trial_index":35,"time_elapsed":238563,"internal_node_id":"0.0-35.0"},{"type":"card_game","game_type":"straight_flush","losers":false,"see_result":true,"my_hand":"h_1_1_3_0","opponent_hand":"h_0_1_1_0","win":false,"tie":false,"bet":0,"earnings":0,"expected_value":-0.03125,"expected_earnings":0,"bet_rt":1486,"block":1,"trial_type":"card_game","trial_index":36,"time_elapsed":241606,"internal_node_id":"0.0-36.0"},{"type":"card_game","game_type":"straight_flush","losers":false,"see_result":true,"my_hand":"h_2_0_2_0","opponent_hand":"h_1_1_3_1","win":false,"tie":false,"bet":2,"earnings":-10,"expected_value":-0.484375,"expected_earnings":-4.84375,"bet_rt":2400,"block":1,"trial_type":"card_game","trial_index":37,"time_elapsed":245565,"internal_node_id":"0.0-37.0"},{"type":"card_game","game_type":"straight_flush","losers":false,"see_result":true,"my_hand":"h_1_0_0_1","opponent_hand":"h_3_1_0_0","win":true,"tie":false,"bet":2,"earnings":10,"expected_value":0.28125,"expected_earnings":2.8125,"bet_rt":1330,"block":1,"trial_type":"card_game","trial_index":38,"time_elapsed":248445,"internal_node_id":"0.0-38.0"},{"rt":4650.740000011865,"stimulus":"<p>You earned a performance bonus of 35 cents on this set of trials, plus $1.50 for making it to this phase.</p><p>Press any key to continue.</p>","key_press":70,"trial_type":"html-keyboard-response","trial_index":39,"time_elapsed":253097,"internal_node_id":"0.0-39.0"},{"rt":6427.484999992885,"stimulus":"<p>To test how well you understand the game, we'll now give you a series of hands where you won't see your results after you bet. You will just see your earnings at the end of the set of hands.</p><p>Press any key to continue.</p>","key_press":70,"trial_type":"html-keyboard-response","trial_index":40,"time_elapsed":259525,"internal_node_id":"0.0-40.0"},{"type":"card_game","game_type":"straight_flush","losers":false,"see_result":false,"my_hand":"h_0_1_1_1","opponent_hand":"h_2_0_0_0","win":true,"tie":false,"bet":2,"earnings":10,"expected_value":0.71875,"expected_earnings":7.1875,"bet_rt":1770,"block":2,"trial_type":"card_game","trial_index":41,"time_elapsed":261799,"internal_node_id":"0.0-41.0"},{"type":"card_game","game_type":"straight_flush","losers":false,"see_result":false,"my_hand":"h_2_1_0_0","opponent_hand":"h_3_1_3_1","win":false,"tie":false,"bet":0,"earnings":0,"expected_value":-0.59375,"expected_earnings":0,"bet_rt":2322,"block":2,"trial_type":"card_game","trial_index":42,"time_elapsed":264623,"internal_node_id":"0.0-42.0"},{"type":"card_game","game_type":"straight_flush","losers":false,"see_result":false,"my_hand":"h_1_0_2_1","opponent_hand":"h_3_1_2_0","win":false,"tie":false,"bet":2,"earnings":-10,"expected_value":0.46875,"expected_earnings":4.6875,"bet_rt":1336,"block":2,"trial_type":"card_game","trial_index":43,"time_elapsed":266462,"internal_node_id":"0.0-43.0"},{"type":"card_game","game_type":"straight_flush","losers":false,"see_result":false,"my_hand":"h_1_0_3_0","opponent_hand":"h_2_1_0_1","win":true,"tie":false,"bet":1,"earnings":5,"expected_value":-0.09375,"expected_earnings":-0.46875,"bet_rt":2392,"block":2,"trial_type":"card_game","trial_index":44,"time_elapsed":269360,"internal_node_id":"0.0-44.0"},{"type":"card_game","game_type":"straight_flush","losers":false,"see_result":false,"my_hand":"h_2_0_2_0","opponent_hand":"h_1_0_0_0","win":false,"tie":false,"bet":1,"earnings":-5,"expected_value":-0.484375,"expected_earnings":-2.421875,"bet_rt":1351,"block":2,"trial_type":"card_game","trial_index":45,"time_elapsed":271211,"internal_node_id":"0.0-45.0"},{"type":"card_game","game_type":"straight_flush","losers":false,"see_result":false,"my_hand":"h_2_0_0_1","opponent_hand":"h_3_1_2_1","win":false,"tie":false,"bet":0,"earnings":0,"expected_value":-0.65625,"expected_earnings":0,"bet_rt":1339,"block":2,"trial_type":"card_game","trial_index":46,"time_elapsed":273055,"internal_node_id":"0.0-46.0"},{"type":"card_game","game_type":"straight_flush","losers":false,"see_result":false,"my_hand":"h_0_1_3_0","opponent_hand":"h_2_0_0_1","win":true,"tie":false,"bet":0,"earnings":0,"expected_value":-0.28125,"expected_earnings":0,"bet_rt":1056,"block":2,"trial_type":"card_game","trial_index":47,"time_elapsed":274613,"internal_node_id":"0.0-47.0"},{"type":"card_game","game_type":"straight_flush","losers":false,"see_result":false,"my_hand":"h_3_0_2_0","opponent_hand":"h_3_1_1_0","win":true,"tie":false,"bet":2,"earnings":10,"expected_value":0.90625,"expected_earnings":9.0625,"bet_rt":1195,"block":2,"trial_type":"card_game","trial_index":48,"time_elapsed":276311,"internal_node_id":"0.0-48.0"},{"type":"card_game","game_type":"straight_flush","losers":false,"see_result":false,"my_hand":"h_0_1_0_1","opponent_hand":"h_3_1_2_1","win":false,"tie":false,"bet":1,"earnings":-5,"expected_value":-0.890625,"expected_earnings":-4.453125,"bet_rt":1558,"block":2,"trial_type":"card_game","trial_index":49,"time_elapsed":278372,"internal_node_id":"0.0-49.0"},{"type":"card_game","game_type":"straight_flush","losers":false,"see_result":false,"my_hand":"h_0_1_3_1","opponent_hand":"h_0_0_0_0","win":true,"tie":false,"bet":0,"earnings":0,"expected_value":-0.15625,"expected_earnings":0,"bet_rt":1617,"block":2,"trial_type":"card_game","trial_index":50,"time_elapsed":280493,"internal_node_id":"0.0-50.0"},{"type":"card_game","game_type":"straight_flush","losers":false,"see_result":false,"my_hand":"h_1_0_1_1","opponent_hand":"h_0_1_1_0","win":false,"tie":false,"bet":1,"earnings":-5,"expected_value":-0.8125,"expected_earnings":-4.0625,"bet_rt":3784,"block":2,"trial_type":"card_game","trial_index":51,"time_elapsed":284782,"internal_node_id":"0.0-51.0"},{"type":"card_game","game_type":"straight_flush","losers":false,"see_result":false,"my_hand":"h_2_0_1_1","opponent_hand":"h_2_0_3_0","win":false,"tie":false,"bet":2,"earnings":-10,"expected_value":0.40625,"expected_earnings":4.0625,"bet_rt":2523,"block":2,"trial_type":"card_game","trial_index":52,"time_elapsed":287807,"internal_node_id":"0.0-52.0"},{"type":"card_game","game_type":"straight_flush","losers":false,"see_result":false,"my_hand":"h_0_1_3_0","opponent_hand":"h_1_1_2_0","win":false,"tie":false,"bet":0,"earnings":0,"expected_value":-0.28125,"expected_earnings":0,"bet_rt":2254,"block":2,"trial_type":"card_game","trial_index":53,"time_elapsed":290565,"internal_node_id":"0.0-53.0"},{"type":"card_game","game_type":"straight_flush","losers":false,"see_result":false,"my_hand":"h_1_0_2_0","opponent_hand":"h_3_0_1_0","win":true,"tie":false,"bet":2,"earnings":10,"expected_value":0.78125,"expected_earnings":7.8125,"bet_rt":1112,"block":2,"trial_type":"card_game","trial_index":54,"time_elapsed":292179,"internal_node_id":"0.0-54.0"},{"type":"card_game","game_type":"straight_flush","losers":false,"see_result":false,"my_hand":"h_2_0_3_1","opponent_hand":"h_0_1_0_1","win":true,"tie":false,"bet":2,"earnings":10,"expected_value":0.59375,"expected_earnings":5.9375,"bet_rt":1171,"block":2,"trial_type":"card_game","trial_index":55,"time_elapsed":293851,"internal_node_id":"0.0-55.0"},{"type":"card_game","game_type":"straight_flush","losers":false,"see_result":false,"my_hand":"h_3_0_3_0","opponent_hand":"h_1_1_1_0","win":true,"tie":false,"bet":1,"earnings":5,"expected_value":0.140625,"expected_earnings":0.703125,"bet_rt":1987,"block":2,"trial_type":"card_game","trial_index":56,"time_elapsed":296340,"internal_node_id":"0.0-56.0"},{"type":"card_game","game_type":"straight_flush","losers":false,"see_result":false,"my_hand":"h_0_1_0_0","opponent_hand":"h_0_0_2_1","win":false,"tie":false,"bet":0,"earnings":0,"expected_value":-0.9375,"expected_earnings":0,"bet_rt":1179,"block":2,"trial_type":"card_game","trial_index":57,"time_elapsed":298024,"internal_node_id":"0.0-57.0"},{"type":"card_game","game_type":"straight_flush","losers":false,"see_result":false,"my_hand":"h_3_0_2_1","opponent_hand":"h_1_1_1_0","win":true,"tie":false,"bet":2,"earnings":10,"expected_value":0.53125,"expected_earnings":5.3125,"bet_rt":1311,"block":2,"trial_type":"card_game","trial_index":58,"time_elapsed":299839,"internal_node_id":"0.0-58.0"},{"type":"card_game","game_type":"straight_flush","losers":false,"see_result":false,"my_hand":"h_0_1_2_1","opponent_hand":"h_1_0_2_0","win":false,"tie":false,"bet":0,"earnings":0,"expected_value":-0.53125,"expected_earnings":0,"bet_rt":1206,"block":2,"trial_type":"card_game","trial_index":59,"time_elapsed":301549,"internal_node_id":"0.0-59.0"},{"type":"card_game","game_type":"straight_flush","losers":false,"see_result":false,"my_hand":"h_1_0_3_0","opponent_hand":"h_2_0_1_0","win":false,"tie":false,"bet":0,"earnings":0,"expected_value":-0.09375,"expected_earnings":0,"bet_rt":1825,"block":2,"trial_type":"card_game","trial_index":60,"time_elapsed":303875,"internal_node_id":"0.0-60.0"},{"type":"card_game","game_type":"straight_flush","losers":false,"see_result":false,"my_hand":"h_2_1_1_0","opponent_hand":"h_2_1_0_1","win":true,"tie":false,"bet":2,"earnings":10,"expected_value":0.46875,"expected_earnings":4.6875,"bet_rt":1355,"block":2,"trial_type":"card_game","trial_index":61,"time_elapsed":305732,"internal_node_id":"0.0-61.0"},{"type":"card_game","game_type":"straight_flush","losers":false,"see_result":false,"my_hand":"h_3_1_1_0","opponent_hand":"h_0_0_1_1","win":false,"tie":false,"bet":0,"earnings":0,"expected_value":0.03125,"expected_earnings":0,"bet_rt":1940,"block":2,"trial_type":"card_game","trial_index":62,"time_elapsed":308176,"internal_node_id":"0.0-62.0"},{"type":"card_game","game_type":"straight_flush","losers":false,"see_result":false,"my_hand":"h_3_1_2_1","opponent_hand":"h_1_1_2_1","win":true,"tie":false,"bet":2,"earnings":10,"expected_value":0.96875,"expected_earnings":9.6875,"bet_rt":1526,"block":2,"trial_type":"card_game","trial_index":63,"time_elapsed":310204,"internal_node_id":"0.0-63.0"},{"type":"card_game","game_type":"straight_flush","losers":false,"see_result":false,"my_hand":"h_3_0_3_1","opponent_hand":"h_2_0_1_0","win":false,"tie":false,"bet":1,"earnings":-5,"expected_value":0.1875,"expected_earnings":0.9375,"bet_rt":1306,"block":2,"trial_type":"card_game","trial_index":64,"time_elapsed":312012,"internal_node_id":"0.0-64.0"},{"rt":3175.4000000073574,"stimulus":"<p>You earned a performance bonus of 50 cents on this set of trials.</p><p>You have earned a performance bonus of 85 cents over the experiment so far, plus $1.50 for making it to this phase.</p><p>Press any key to continue.</p>","key_press":70,"trial_type":"html-keyboard-response","trial_index":65,"time_elapsed":315191,"internal_node_id":"0.0-65.0"},{"rt":9894.919999991544,"stimulus":"<p><font color='red'><b>Now, we want you to try to lose the game! For the remainder of the experiment, if you bet and lose, you'll gain the amount you bet, and if you bet and win, you'll lose the amount you bet.</b></font></p><p>As before, you won't win or lose anything if you tie your opponent, or if you don't bet.</p><p>Press any key to continue.</p>","key_press":70,"trial_type":"html-keyboard-response","trial_index":66,"time_elapsed":325087,"internal_node_id":"0.0-66.0"},{"rt":7268.845000013243,"responses":"{\"Q0\":\"Bet and my hand loses.\"}","question_order":"[0]","response_trial_type":"attention_check","trial_type":"survey-multi-choice","trial_index":67,"time_elapsed":332359,"internal_node_id":"0.0-67.0"},{"rt":2006.4199999906123,"stimulus":"<p>Great, now you get to play a few hands!</p><p>As before, you won't see your results after you bet. You will just see your earnings at the end of the set of hands.</p><p>Press any key to continue.</p>","key_press":70,"trial_type":"html-keyboard-response","trial_index":68,"time_elapsed":334381,"internal_node_id":"0.0-68.0"},{"type":"card_game","game_type":"straight_flush","losers":true,"see_result":false,"my_hand":"h_3_1_2_0","opponent_hand":"h_1_0_0_0","win":true,"tie":false,"bet":0,"earnings":0,"expected_value":-0.59375,"expected_earnings":0,"bet_rt":3111,"block":3,"trial_type":"card_game","trial_index":69,"time_elapsed":337995,"internal_node_id":"0.0-69.0"},{"type":"card_game","game_type":"straight_flush","losers":true,"see_result":false,"my_hand":"h_0_0_0_0","opponent_hand":"h_0_1_0_0","win":true,"tie":false,"bet":0,"earnings":0,"expected_value":0.984375,"expected_earnings":0,"bet_rt":945,"block":3,"trial_type":"card_game","trial_index":70,"time_elapsed":339441,"internal_node_id":"0.0-70.0"},{"type":"card_game","game_type":"straight_flush","losers":true,"see_result":false,"my_hand":"h_2_1_2_0","opponent_hand":"h_1_0_0_1","win":true,"tie":false,"bet":0,"earnings":0,"expected_value":0.4375,"expected_earnings":0,"bet_rt":1139,"block":3,"trial_type":"card_game","trial_index":71,"time_elapsed":341085,"internal_node_id":"0.0-71.0"},{"type":"card_game","game_type":"straight_flush","losers":true,"see_result":false,"my_hand":"h_3_1_3_0","opponent_hand":"h_0_0_3_0","win":false,"tie":false,"bet":0,"earnings":0,"expected_value":-0.1875,"expected_earnings":0,"bet_rt":1088,"block":3,"trial_type":"card_game","trial_index":72,"time_elapsed":342674,"internal_node_id":"0.0-72.0"},{"type":"card_game","game_type":"straight_flush","losers":true,"see_result":false,"my_hand":"h_1_0_2_1","opponent_hand":"h_3_1_3_1","win":false,"tie":false,"bet":0,"earnings":0,"expected_value":-0.46875,"expected_earnings":0,"bet_rt":7733,"block":3,"trial_type":"card_game","trial_index":73,"time_elapsed":350912,"internal_node_id":"0.0-73.0"},{"type":"card_game","game_type":"straight_flush","losers":true,"see_result":false,"my_hand":"h_0_1_3_1","opponent_hand":"h_0_0_3_0","win":false,"tie":false,"bet":2,"earnings":-10,"expected_value":0.15625,"expected_earnings":1.5625,"bet_rt":1356,"block":3,"trial_type":"card_game","trial_index":74,"time_elapsed":352769,"internal_node_id":"0.0-74.0"},{"type":"card_game","game_type":"straight_flush","losers":true,"see_result":false,"my_hand":"h_0_1_3_0","opponent_hand":"h_3_1_2_0","win":true,"tie":false,"bet":2,"earnings":10,"expected_value":0.28125,"expected_earnings":2.8125,"bet_rt":842,"block":3,"trial_type":"card_game","trial_index":75,"time_elapsed":354116,"internal_node_id":"0.0-75.0"},{"type":"card_game","game_type":"straight_flush","losers":true,"see_result":false,"my_hand":"h_1_0_3_0","opponent_hand":"h_3_0_3_1","win":true,"tie":false,"bet":1,"earnings":5,"expected_value":0.09375,"expected_earnings":0.46875,"bet_rt":2513,"block":3,"trial_type":"card_game","trial_index":76,"time_elapsed":357129,"internal_node_id":"0.0-76.0"},{"type":"card_game","game_type":"straight_flush","losers":true,"see_result":false,"my_hand":"h_2_1_1_0","opponent_hand":"h_3_1_0_0","win":false,"tie":false,"bet":0,"earnings":0,"expected_value":-0.46875,"expected_earnings":0,"bet_rt":1667,"block":3,"trial_type":"card_game","trial_index":77,"time_elapsed":359299,"internal_node_id":"0.0-77.0"},{"type":"card_game","game_type":"straight_flush","losers":true,"see_result":false,"my_hand":"h_0_0_2_1","opponent_hand":"h_3_1_2_0","win":true,"tie":false,"bet":2,"earnings":10,"expected_value":0.59375,"expected_earnings":5.9375,"bet_rt":1683,"block":3,"trial_type":"card_game","trial_index":78,"time_elapsed":361484,"internal_node_id":"0.0-78.0"},{"type":"card_game","game_type":"straight_flush","losers":true,"see_result":false,"my_hand":"h_0_0_0_1","opponent_hand":"h_1_1_1_0","win":true,"tie":false,"bet":1,"earnings":5,"expected_value":0.9375,"expected_earnings":4.6875,"bet_rt":1463,"block":3,"trial_type":"card_game","trial_index":79,"time_elapsed":363450,"internal_node_id":"0.0-79.0"},{"type":"card_game","game_type":"straight_flush","losers":true,"see_result":false,"my_hand":"h_2_0_2_1","opponent_hand":"h_1_0_1_0","win":false,"tie":false,"bet":0,"earnings":0,"expected_value":0.4375,"expected_earnings":0,"bet_rt":1169,"block":3,"trial_type":"card_game","trial_index":80,"time_elapsed":365122,"internal_node_id":"0.0-80.0"},{"type":"card_game","game_type":"straight_flush","losers":true,"see_result":false,"my_hand":"h_3_1_1_1","opponent_hand":"h_1_1_3_0","win":false,"tie":false,"bet":1,"earnings":-5,"expected_value":-0.09375,"expected_earnings":-0.46875,"bet_rt":1457,"block":3,"trial_type":"card_game","trial_index":81,"time_elapsed":367084,"internal_node_id":"0.0-81.0"},{"type":"card_game","game_type":"straight_flush","losers":true,"see_result":false,"my_hand":"h_0_1_1_1","opponent_hand":"h_3_0_1_0","win":false,"tie":false,"bet":0,"earnings":0,"expected_value":-0.71875,"expected_earnings":0,"bet_rt":1336,"block":3,"trial_type":"card_game","trial_index":82,"time_elapsed":368924,"internal_node_id":"0.0-82.0"},{"type":"card_game","game_type":"straight_flush","losers":true,"see_result":false,"my_hand":"h_1_1_3_1","opponent_hand":"h_2_0_0_0","win":false,"tie":false,"bet":2,"earnings":-10,"expected_value":-0.09375,"expected_earnings":-0.9375,"bet_rt":1433,"block":3,"trial_type":"card_game","trial_index":83,"time_elapsed":370858,"internal_node_id":"0.0-83.0"},{"type":"card_game","game_type":"straight_flush","losers":true,"see_result":false,"my_hand":"h_1_1_1_0","opponent_hand":"h_2_1_3_0","win":true,"tie":false,"bet":0,"earnings":0,"expected_value":0.8125,"expected_earnings":0,"bet_rt":1229,"block":3,"trial_type":"card_game","trial_index":84,"time_elapsed":372588,"internal_node_id":"0.0-84.0"},{"type":"card_game","game_type":"straight_flush","losers":true,"see_result":false,"my_hand":"h_1_1_2_1","opponent_hand":"h_0_1_2_0","win":false,"tie":false,"bet":0,"earnings":0,"expected_value":-0.84375,"expected_earnings":0,"bet_rt":712,"block":3,"trial_type":"card_game","trial_index":85,"time_elapsed":373805,"internal_node_id":"0.0-85.0"},{"type":"card_game","game_type":"straight_flush","losers":true,"see_result":false,"my_hand":"h_2_0_1_0","opponent_hand":"h_0_0_2_1","win":false,"tie":false,"bet":0,"earnings":0,"expected_value":-0.78125,"expected_earnings":0,"bet_rt":1038,"block":3,"trial_type":"card_game","trial_index":86,"time_elapsed":375344,"internal_node_id":"0.0-86.0"},{"type":"card_game","game_type":"straight_flush","losers":true,"see_result":false,"my_hand":"h_0_0_3_1","opponent_hand":"h_3_1_1_1","win":true,"tie":false,"bet":2,"earnings":10,"expected_value":0.21875,"expected_earnings":2.1875,"bet_rt":1299,"block":3,"trial_type":"card_game","trial_index":87,"time_elapsed":377144,"internal_node_id":"0.0-87.0"},{"type":"card_game","game_type":"straight_flush","losers":true,"see_result":false,"my_hand":"h_0_0_1_0","opponent_hand":"h_0_1_2_0","win":false,"tie":false,"bet":0,"earnings":0,"expected_value":-0.65625,"expected_earnings":0,"bet_rt":1028,"block":3,"trial_type":"card_game","trial_index":88,"time_elapsed":378676,"internal_node_id":"0.0-88.0"},{"type":"card_game","game_type":"straight_flush","losers":true,"see_result":false,"my_hand":"h_2_0_0_1","opponent_hand":"h_0_0_2_1","win":true,"tie":false,"bet":2,"earnings":10,"expected_value":0.65625,"expected_earnings":6.5625,"bet_rt":1072,"block":3,"trial_type":"card_game","trial_index":89,"time_elapsed":380249,"internal_node_id":"0.0-89.0"},{"type":"card_game","game_type":"straight_flush","losers":true,"see_result":false,"my_hand":"h_0_0_2_0","opponent_hand":"h_1_0_1_0","win":false,"tie":false,"bet":2,"earnings":-10,"expected_value":0.71875,"expected_earnings":7.1875,"bet_rt":1042,"block":3,"trial_type":"card_game","trial_index":90,"time_elapsed":381797,"internal_node_id":"0.0-90.0"},{"type":"card_game","game_type":"straight_flush","losers":true,"see_result":false,"my_hand":"h_1_0_2_1","opponent_hand":"h_3_0_2_1","win":true,"tie":false,"bet":0,"earnings":0,"expected_value":-0.46875,"expected_earnings":0,"bet_rt":1249,"block":3,"trial_type":"card_game","trial_index":91,"time_elapsed":383549,"internal_node_id":"0.0-91.0"},{"type":"card_game","game_type":"straight_flush","losers":true,"see_result":false,"my_hand":"h_2_1_1_1","opponent_hand":"h_0_0_0_0","win":false,"tie":false,"bet":0,"earnings":0,"expected_value":-0.84375,"expected_earnings":0,"bet_rt":623,"block":3,"trial_type":"card_game","trial_index":92,"time_elapsed":384676,"internal_node_id":"0.0-92.0"},{"rt":4730.880000046454,"stimulus":"<p>You earned a performance bonus of 30 cents on this set of trials.</p><p>You have earned a performance bonus of 115 cents over the experiment so far, plus $1.50 for making it to this phase.</p><p>Press any key to continue.</p>","key_press":70,"trial_type":"html-keyboard-response","trial_index":93,"time_elapsed":389408,"internal_node_id":"0.0-93.0"},{"rt":1199.1350000025705,"stimulus":"<p>Great, we just have a few questions to ask you and then you'll be finished!</p><p>Press any key to continue.</p>","key_press":70,"trial_type":"html-keyboard-response","trial_index":94,"time_elapsed":390608,"internal_node_id":"0.0-94.0"},{"rt":8906.390000018291,"responses":"{\"Q0\":4,\"Q1\":3,\"Q2\":3}","question_order":"[0,1,2]","response_trial_type":"debrief","trial_type":"survey-likert","trial_index":95,"time_elapsed":399518,"internal_node_id":"0.0-95.0"},{"rt":7093.989999964833,"responses":"{\"Q0\":\"25-35\",\"Q1\":\"Bachelor's degree\",\"Q2\":\"Female\",\"Q3\":\"Asian\"}","question_order":"[0,1,2,3]","response_trial_type":"demographics","trial_type":"survey-multi-choice","trial_index":96,"time_elapsed":406629,"internal_node_id":"0.0-96.0"},{"rt":1365.639999974519,"responses":"{\"Q0\":\"\"}","response_trial_type":"comments","trial_type":"survey-text","trial_index":97,"time_elapsed":408012,"internal_node_id":"0.0-97.0"}]