[{"view_history":"[{\"page_index\":0,\"viewing_time\":7003},{\"page_index\":1,\"viewing_time\":12183},{\"page_index\":2,\"viewing_time\":8490},{\"page_index\":3,\"viewing_time\":21300},{\"page_index\":4,\"viewing_time\":16889},{\"page_index\":5,\"viewing_time\":9283},{\"page_index\":6,\"viewing_time\":9044}]","rt":84192,"trial_type":"instructions","trial_index":0,"time_elapsed":84195,"internal_node_id":"0.0-0.0"},{"type":"hand_comparison","hand_win":"h_1_0_2_1","hand_lose":"h_3_0_0_0","explanation":"Adjacent cards beat non-adjacent.","hand_indices":[0,1],"hand_choice":0,"correct":true,"rt":5416,"trial_type":"hand_comparison","trial_index":1,"time_elapsed":91614,"internal_node_id":"0.0-1.0"},{"type":"hand_comparison","hand_win":"h_0_0_1_0","hand_lose":"h_3_0_2_1","explanation":"Same-suit adjacent beats different suit.","hand_indices":[1,0],"hand_choice":1,"correct":true,"rt":4038,"trial_type":"hand_comparison","trial_index":2,"time_elapsed":97652,"internal_node_id":"0.0-2.0"},{"type":"hand_comparison","hand_win":"h_3_0_0_1","hand_lose":"h_2_0_2_1","explanation":"Highest card breaks ties.","hand_indices":[1,0],"hand_choice":1,"correct":true,"rt":13784,"trial_type":"hand_comparison","trial_index":3,"time_elapsed":113437,"internal_node_id":"0.0-3.0"},{"type":"hand_comparison","hand_win":"h_3_1_2_1","hand_lose":"h_2_0_3_0","explanation":"Black cards beat red cards if the numbers are tied.","hand_indices":[0,1],"hand_choice":0,"correct":true,"rt":7537,"trial_type":"hand_comparison","trial_index":4,"time_elapsed":122975,"internal_node_id":"0.0-4.0"},{"rt":3792,"stimulus":"<p><b>Congratulations, you passed the test, and will get to proceed to phase 2!</b></p><p>You have earned a $1.50 bonus, and will be awarded a performance bonus based on your bets in the next phase.</p><p>Press any key to continue.</p>","key_press":38,"trial_type":"html-keyboard-response","trial_index":5,"time_elapsed":126768,"internal_node_id":"0.0-5.0"},{"rt":3108,"stimulus":"<p>Now you get to play a few hands. After you bet, we'll show you your opponent's hand and how much you won (or lost), and at the end of these hands we'll tell you your total earnings.</p><p>Press any key to continue.</p>","key_press":38,"trial_type":"html-keyboard-response","trial_index":6,"time_elapsed":129877,"internal_node_id":"0.0-6.0"},{"type":"card_game","game_type":"straight_flush","losers":false,"see_result":true,"my_hand":"h_1_1_3_1","opponent_hand":"h_3_0_3_1","win":false,"tie":false,"bet":1,"earnings":-5,"expected_value":0.09375,"expected_earnings":0.46875,"bet_rt":3817,"block":1,"trial_type":"card_game","trial_index":7,"time_elapsed":135255,"internal_node_id":"0.0-7.0"},{"type":"card_game","game_type":"straight_flush","losers":false,"see_result":true,"my_hand":"h_1_0_2_1","opponent_hand":"h_1_1_3_0","win":true,"tie":false,"bet":2,"earnings":10,"expected_value":0.46875,"expected_earnings":4.6875,"bet_rt":1434,"block":1,"trial_type":"card_game","trial_index":8,"time_elapsed":138252,"internal_node_id":"0.0-8.0"},{"type":"card_game","game_type":"straight_flush","losers":false,"see_result":true,"my_hand":"h_1_1_2_1","opponent_hand":"h_1_1_2_0","win":true,"tie":false,"bet":2,"earnings":10,"expected_value":0.84375,"expected_earnings":8.4375,"bet_rt":1009,"block":1,"trial_type":"card_game","trial_index":9,"time_elapsed":140811,"internal_node_id":"0.0-9.0"},{"type":"card_game","game_type":"straight_flush","losers":false,"see_result":true,"my_hand":"h_0_0_0_1","opponent_hand":"h_0_0_0_0","win":true,"tie":false,"bet":1,"earnings":5,"expected_value":-0.9375,"expected_earnings":-4.6875,"bet_rt":1735,"block":1,"trial_type":"card_game","trial_index":10,"time_elapsed":144107,"internal_node_id":"0.0-10.0"},{"type":"card_game","game_type":"straight_flush","losers":false,"see_result":true,"my_hand":"h_2_1_0_0","opponent_hand":"h_2_1_3_0","win":false,"tie":false,"bet":0,"earnings":0,"expected_value":-0.59375,"expected_earnings":0,"bet_rt":2112,"block":1,"trial_type":"card_game","trial_index":11,"time_elapsed":147772,"internal_node_id":"0.0-11.0"},{"type":"card_game","game_type":"straight_flush","losers":false,"see_result":true,"my_hand":"h_0_1_2_0","opponent_hand":"h_1_0_3_1","win":false,"tie":false,"bet":0,"earnings":0,"expected_value":-0.65625,"expected_earnings":0,"bet_rt":1112,"block":1,"trial_type":"card_game","trial_index":12,"time_elapsed":150429,"internal_node_id":"0.0-12.0"},{"type":"card_game","game_type":"straight_flush","losers":false,"see_result":true,"my_hand":"h_0_1_2_1","opponent_hand":"h_1_0_0_0","win":false,"tie":false,"bet":0,"earnings":0,"expected_value":-0.53125,"expected_earnings":0,"bet_rt":938,"block":1,"trial_type":"card_game","trial_index":13,"time_elapsed":152905,"internal_node_id":"0.0-13.0"},{"type":"card_game","game_type":"straight_flush","losers":false,"see_result":true,"my_hand":"h_3_0_0_1","opponent_hand":"h_1_0_2_1","win":false,"tie":false,"bet":0,"earnings":0,"expected_value":-0.28125,"expected_earnings":0,"bet_rt":1072,"block":1,"trial_type":"card_game","trial_index":14,"time_elapsed":155519,"internal_node_id":"0.0-14.0"},{"type":"card_game","game_type":"straight_flush","losers":false,"see_result":true,"my_hand":"h_0_1_1_0","opponent_hand":"h_1_0_2_1","win":false,"tie":false,"bet":2,"earnings":-10,"expected_value":0.28125,"expected_earnings":2.8125,"bet_rt":1569,"block":1,"trial_type":"card_game","trial_index":15,"time_elapsed":158627,"internal_node_id":"0.0-15.0"},{"type":"card_game","game_type":"straight_flush","losers":false,"see_result":true,"my_hand":"h_0_0_1_0","opponent_hand":"h_1_0_0_0","win":false,"tie":true,"bet":1,"earnings":0,"expected_value":0.65625,"expected_earnings":3.28125,"bet_rt":2389,"block":1,"trial_type":"card_game","trial_index":16,"time_elapsed":162562,"internal_node_id":"0.0-16.0"},{"type":"card_game","game_type":"straight_flush","losers":false,"see_result":true,"my_hand":"h_2_0_3_0","opponent_hand":"h_3_1_2_0","win":true,"tie":false,"bet":2,"earnings":10,"expected_value":0.90625,"expected_earnings":9.0625,"bet_rt":1223,"block":1,"trial_type":"card_game","trial_index":17,"time_elapsed":165324,"internal_node_id":"0.0-17.0"},{"type":"card_game","game_type":"straight_flush","losers":false,"see_result":true,"my_hand":"h_1_0_1_0","opponent_hand":"h_2_0_1_1","win":false,"tie":false,"bet":0,"earnings":0,"expected_value":-0.859375,"expected_earnings":0,"bet_rt":2268,"block":1,"trial_type":"card_game","trial_index":18,"time_elapsed":169140,"internal_node_id":"0.0-18.0"},{"type":"card_game","game_type":"straight_flush","losers":false,"see_result":true,"my_hand":"h_0_0_1_0","opponent_hand":"h_3_1_2_1","win":false,"tie":false,"bet":1,"earnings":-5,"expected_value":0.65625,"expected_earnings":3.28125,"bet_rt":4849,"block":1,"trial_type":"card_game","trial_index":19,"time_elapsed":175529,"internal_node_id":"0.0-19.0"},{"type":"card_game","game_type":"straight_flush","losers":false,"see_result":true,"my_hand":"h_3_1_0_1","opponent_hand":"h_0_0_2_1","win":true,"tie":false,"bet":0,"earnings":0,"expected_value":-0.15625,"expected_earnings":0,"bet_rt":3112,"block":1,"trial_type":"card_game","trial_index":20,"time_elapsed":180178,"internal_node_id":"0.0-20.0"},{"type":"card_game","game_type":"straight_flush","losers":false,"see_result":true,"my_hand":"h_2_1_3_1","opponent_hand":"h_1_1_1_1","win":true,"tie":false,"bet":2,"earnings":10,"expected_value":0.96875,"expected_earnings":9.6875,"bet_rt":1274,"block":1,"trial_type":"card_game","trial_index":21,"time_elapsed":182995,"internal_node_id":"0.0-21.0"},{"type":"card_game","game_type":"straight_flush","losers":false,"see_result":true,"my_hand":"h_0_0_3_1","opponent_hand":"h_0_1_3_0","win":true,"tie":false,"bet":0,"earnings":0,"expected_value":-0.21875,"expected_earnings":0,"bet_rt":1611,"block":1,"trial_type":"card_game","trial_index":22,"time_elapsed":186149,"internal_node_id":"0.0-22.0"},{"type":"card_game","game_type":"straight_flush","losers":false,"see_result":true,"my_hand":"h_2_1_1_0","opponent_hand":"h_3_0_0_1","win":true,"tie":false,"bet":1,"earnings":5,"expected_value":0.46875,"expected_earnings":2.34375,"bet_rt":1201,"block":1,"trial_type":"card_game","trial_index":23,"time_elapsed":188894,"internal_node_id":"0.0-23.0"},{"type":"card_game","game_type":"straight_flush","losers":false,"see_result":true,"my_hand":"h_1_1_0_0","opponent_hand":"h_3_1_3_1","win":true,"tie":false,"bet":1,"earnings":5,"expected_value":0.34375,"expected_earnings":1.71875,"bet_rt":935,"block":1,"trial_type":"card_game","trial_index":24,"time_elapsed":191371,"internal_node_id":"0.0-24.0"},{"type":"card_game","game_type":"straight_flush","losers":false,"see_result":true,"my_hand":"h_2_0_3_1","opponent_hand":"h_3_1_0_0","win":true,"tie":false,"bet":2,"earnings":10,"expected_value":0.59375,"expected_earnings":5.9375,"bet_rt":899,"block":1,"trial_type":"card_game","trial_index":25,"time_elapsed":193807,"internal_node_id":"0.0-25.0"},{"type":"card_game","game_type":"straight_flush","losers":false,"see_result":true,"my_hand":"h_1_0_2_0","opponent_hand":"h_2_0_1_0","win":false,"tie":true,"bet":2,"earnings":0,"expected_value":0.78125,"expected_earnings":7.8125,"bet_rt":904,"block":1,"trial_type":"card_game","trial_index":26,"time_elapsed":196257,"internal_node_id":"0.0-26.0"},{"type":"card_game","game_type":"straight_flush","losers":false,"see_result":true,"my_hand":"h_3_1_3_1","opponent_hand":"h_3_0_1_0","win":true,"tie":false,"bet":0,"earnings":0,"expected_value":0.234375,"expected_earnings":0,"bet_rt":1080,"block":1,"trial_type":"card_game","trial_index":27,"time_elapsed":198879,"internal_node_id":"0.0-27.0"},{"type":"card_game","game_type":"straight_flush","losers":false,"see_result":true,"my_hand":"h_3_0_2_1","opponent_hand":"h_2_1_3_1","win":false,"tie":false,"bet":2,"earnings":-10,"expected_value":0.53125,"expected_earnings":5.3125,"bet_rt":1341,"block":1,"trial_type":"card_game","trial_index":28,"time_elapsed":201762,"internal_node_id":"0.0-28.0"},{"type":"card_game","game_type":"straight_flush","losers":false,"see_result":true,"my_hand":"h_3_0_3_1","opponent_hand":"h_0_0_2_0","win":true,"tie":false,"bet":0,"earnings":0,"expected_value":0.1875,"expected_earnings":0,"bet_rt":1523,"block":1,"trial_type":"card_game","trial_index":29,"time_elapsed":204822,"internal_node_id":"0.0-29.0"},{"type":"card_game","game_type":"straight_flush","losers":false,"see_result":true,"my_hand":"h_1_0_3_1","opponent_hand":"h_2_1_1_0","win":false,"tie":false,"bet":0,"earnings":0,"expected_value":0.03125,"expected_earnings":0,"bet_rt":1357,"block":1,"trial_type":"card_game","trial_index":30,"time_elapsed":207724,"internal_node_id":"0.0-30.0"},{"type":"card_game","game_type":"straight_flush","losers":false,"see_result":true,"my_hand":"h_1_1_1_1","opponent_hand":"h_1_1_0_1","win":false,"tie":false,"bet":0,"earnings":0,"expected_value":-0.765625,"expected_earnings":0,"bet_rt":868,"block":1,"trial_type":"card_game","trial_index":31,"time_elapsed":210141,"internal_node_id":"0.0-31.0"},{"type":"card_game","game_type":"straight_flush","losers":false,"see_result":true,"my_hand":"h_2_1_2_0","opponent_hand":"h_0_1_1_0","win":false,"tie":false,"bet":0,"earnings":0,"expected_value":-0.4375,"expected_earnings":0,"bet_rt":745,"block":1,"trial_type":"card_game","trial_index":32,"time_elapsed":212433,"internal_node_id":"0.0-32.0"},{"type":"card_game","game_type":"straight_flush","losers":false,"see_result":true,"my_hand":"h_3_0_1_0","opponent_hand":"h_3_1_2_1","win":false,"tie":false,"bet":0,"earnings":0,"expected_value":-0.09375,"expected_earnings":0,"bet_rt":1097,"block":1,"trial_type":"card_game","trial_index":33,"time_elapsed":215072,"internal_node_id":"0.0-33.0"},{"type":"card_game","game_type":"straight_flush","losers":false,"see_result":true,"my_hand":"h_0_0_0_1","opponent_hand":"h_2_1_1_1","win":false,"tie":false,"bet":0,"earnings":0,"expected_value":-0.9375,"expected_earnings":0,"bet_rt":806,"block":1,"trial_type":"card_game","trial_index":34,"time_elapsed":217421,"internal_node_id":"0.0-34.0"},{"type":"card_game","game_type":"straight_flush","losers":false,"see_result":true,"my_hand":"h_2_1_2_0","opponent_hand":"h_3_0_3_0","win":false,"tie":false,"bet":0,"earnings":0,"expected_value":-0.4375,"expected_earnings":0,"bet_rt":886,"block":1,"trial_type":"card_game","trial_index":35,"time_elapsed":219858,"internal_node_id":"0.0-35.0"},{"type":"card_game","game_type":"straight_flush","losers":false,"see_result":true,"my_hand":"h_0_1_3_0","opponent_hand":"h_3_0_3_0","win":false,"tie":false,"bet":0,"earnings":0,"expected_value":-0.28125,"expected_earnings":0,"bet_rt":917,"block":1,"trial_type":"card_game","trial_index":36,"time_elapsed":222315,"internal_node_id":"0.0-36.0"},{"type":"card_game","game_type":"straight_flush","losers":false,"see_result":true,"my_hand":"h_3_0_1_1","opponent_hand":"h_3_0_3_1","win":false,"tie":false,"bet":0,"earnings":0,"expected_value":-0.03125,"expected_earnings":0,"bet_rt":883,"block":1,"trial_type":"card_game","trial_index":37,"time_elapsed":224739,"internal_node_id":"0.0-37.0"},{"type":"card_game","game_type":"straight_flush","losers":false,"see_result":true,"my_hand":"h_2_0_0_1","opponent_hand":"h_0_0_1_1","win":false,"tie":false,"bet":0,"earnings":0,"expected_value":-0.65625,"expected_earnings":0,"bet_rt":1015,"block":1,"trial_type":"card_game","trial_index":38,"time_elapsed":227295,"internal_node_id":"0.0-38.0"},{"rt":3062,"stimulus":"<p>You earned a performance bonus of 35 cents on this set of trials, plus $1.50 for making it to this phase.</p><p>Press any key to continue.</p>","key_press":38,"trial_type":"html-keyboard-response","trial_index":39,"time_elapsed":230357,"internal_node_id":"0.0-39.0"},{"rt":5040,"stimulus":"<p>To test how well you understand the game, we'll now give you a series of hands where you won't see your results after you bet. You will just see your earnings at the end of the set of hands.</p><p>Press any key to continue.</p>","key_press":38,"trial_type":"html-keyboard-response","trial_index":40,"time_elapsed":235397,"internal_node_id":"0.0-40.0"},{"type":"card_game","game_type":"straight_flush","losers":false,"see_result":false,"my_hand":"h_3_0_3_0","opponent_hand":"h_3_0_3_0","win":false,"tie":true,"bet":0,"earnings":0,"expected_value":0.140625,"expected_earnings":0,"bet_rt":2615,"block":2,"trial_type":"card_game","trial_index":41,"time_elapsed":238513,"internal_node_id":"0.0-41.0"},{"type":"card_game","game_type":"straight_flush","losers":false,"see_result":false,"my_hand":"h_0_1_1_1","opponent_hand":"h_1_0_2_1","win":true,"tie":false,"bet":2,"earnings":10,"expected_value":0.71875,"expected_earnings":7.1875,"bet_rt":1184,"block":2,"trial_type":"card_game","trial_index":42,"time_elapsed":240198,"internal_node_id":"0.0-42.0"},{"type":"card_game","game_type":"straight_flush","losers":false,"see_result":false,"my_hand":"h_2_0_0_0","opponent_hand":"h_0_0_2_1","win":false,"tie":false,"bet":0,"earnings":0,"expected_value":-0.71875,"expected_earnings":0,"bet_rt":1090,"block":2,"trial_type":"card_game","trial_index":43,"time_elapsed":241790,"internal_node_id":"0.0-43.0"},{"type":"card_game","game_type":"straight_flush","losers":false,"see_result":false,"my_hand":"h_3_0_0_1","opponent_hand":"h_2_1_0_0","win":true,"tie":false,"bet":0,"earnings":0,"expected_value":-0.28125,"expected_earnings":0,"bet_rt":671,"block":2,"trial_type":"card_game","trial_index":44,"time_elapsed":242962,"internal_node_id":"0.0-44.0"},{"type":"card_game","game_type":"straight_flush","losers":false,"see_result":false,"my_hand":"h_1_1_3_1","opponent_hand":"h_3_1_2_1","win":false,"tie":false,"bet":0,"earnings":0,"expected_value":0.09375,"expected_earnings":0,"bet_rt":1450,"block":2,"trial_type":"card_game","trial_index":45,"time_elapsed":244914,"internal_node_id":"0.0-45.0"},{"type":"card_game","game_type":"straight_flush","losers":false,"see_result":false,"my_hand":"h_2_1_2_0","opponent_hand":"h_3_0_3_1","win":false,"tie":false,"bet":0,"earnings":0,"expected_value":-0.4375,"expected_earnings":0,"bet_rt":981,"block":2,"trial_type":"card_game","trial_index":46,"time_elapsed":246395,"internal_node_id":"0.0-46.0"},{"type":"card_game","game_type":"straight_flush","losers":false,"see_result":false,"my_hand":"h_3_0_1_1","opponent_hand":"h_3_0_3_1","win":false,"tie":false,"bet":0,"earnings":0,"expected_value":-0.03125,"expected_earnings":0,"bet_rt":882,"block":2,"trial_type":"card_game","trial_index":47,"time_elapsed":247777,"internal_node_id":"0.0-47.0"},{"type":"card_game","game_type":"straight_flush","losers":false,"see_result":false,"my_hand":"h_2_0_3_1","opponent_hand":"h_3_1_2_0","win":false,"tie":true,"bet":2,"earnings":0,"expected_value":0.59375,"expected_earnings":5.9375,"bet_rt":973,"block":2,"trial_type":"card_game","trial_index":48,"time_elapsed":249252,"internal_node_id":"0.0-48.0"},{"type":"card_game","game_type":"straight_flush","losers":false,"see_result":false,"my_hand":"h_2_0_0_0","opponent_hand":"h_3_0_3_1","win":false,"tie":false,"bet":0,"earnings":0,"expected_value":-0.71875,"expected_earnings":0,"bet_rt":6671,"block":2,"trial_type":"card_game","trial_index":49,"time_elapsed":256424,"internal_node_id":"0.0-49.0"},{"type":"card_game","game_type":"straight_flush","losers":false,"see_result":false,"my_hand":"h_1_0_2_0","opponent_hand":"h_0_1_3_1","win":true,"tie":false,"bet":2,"earnings":10,"expected_value":0.78125,"expected_earnings":7.8125,"bet_rt":1217,"block":2,"trial_type":"card_game","trial_index":50,"time_elapsed":258141,"internal_node_id":"0.0-50.0"},{"type":"card_game","game_type":"straight_flush","losers":false,"see_result":false,"my_hand":"h_1_0_2_0","opponent_hand":"h_2_1_1_1","win":false,"tie":false,"bet":2,"earnings":-10,"expected_value":0.78125,"expected_earnings":7.8125,"bet_rt":983,"block":2,"trial_type":"card_game","trial_index":51,"time_elapsed":259623,"internal_node_id":"0.0-51.0"},{"type":"card_game","game_type":"straight_flush","losers":false,"see_result":false,"my_hand":"h_3_0_0_0","opponent_hand":"h_0_1_3_0","win":false,"tie":false,"bet":0,"earnings":0,"expected_value":-0.34375,"expected_earnings":0,"bet_rt":861,"block":2,"trial_type":"card_game","trial_index":52,"time_elapsed":260986,"internal_node_id":"0.0-52.0"},{"type":"card_game","game_type":"straight_flush","losers":false,"see_result":false,"my_hand":"h_1_0_0_1","opponent_hand":"h_3_1_3_0","win":true,"tie":false,"bet":2,"earnings":10,"expected_value":0.28125,"expected_earnings":2.8125,"bet_rt":912,"block":2,"trial_type":"card_game","trial_index":53,"time_elapsed":262398,"internal_node_id":"0.0-53.0"},{"type":"card_game","game_type":"straight_flush","losers":false,"see_result":false,"my_hand":"h_0_0_1_1","opponent_hand":"h_2_1_0_1","win":true,"tie":false,"bet":2,"earnings":10,"expected_value":0.34375,"expected_earnings":3.4375,"bet_rt":819,"block":2,"trial_type":"card_game","trial_index":54,"time_elapsed":263718,"internal_node_id":"0.0-54.0"},{"type":"card_game","game_type":"straight_flush","losers":false,"see_result":false,"my_hand":"h_2_0_3_0","opponent_hand":"h_2_1_1_0","win":true,"tie":false,"bet":2,"earnings":10,"expected_value":0.90625,"expected_earnings":9.0625,"bet_rt":1904,"block":2,"trial_type":"card_game","trial_index":55,"time_elapsed":266122,"internal_node_id":"0.0-55.0"},{"type":"card_game","game_type":"straight_flush","losers":false,"see_result":false,"my_hand":"h_2_0_3_1","opponent_hand":"h_1_0_1_1","win":true,"tie":false,"bet":2,"earnings":10,"expected_value":0.59375,"expected_earnings":5.9375,"bet_rt":1116,"block":2,"trial_type":"card_game","trial_index":56,"time_elapsed":267740,"internal_node_id":"0.0-56.0"},{"type":"card_game","game_type":"straight_flush","losers":false,"see_result":false,"my_hand":"h_1_1_3_0","opponent_hand":"h_1_0_1_1","win":true,"tie":false,"bet":0,"earnings":0,"expected_value":-0.03125,"expected_earnings":0,"bet_rt":1214,"block":2,"trial_type":"card_game","trial_index":57,"time_elapsed":269455,"internal_node_id":"0.0-57.0"},{"type":"card_game","game_type":"straight_flush","losers":false,"see_result":false,"my_hand":"h_1_0_2_1","opponent_hand":"h_1_0_3_0","win":true,"tie":false,"bet":1,"earnings":5,"expected_value":0.46875,"expected_earnings":2.34375,"bet_rt":1043,"block":2,"trial_type":"card_game","trial_index":58,"time_elapsed":270999,"internal_node_id":"0.0-58.0"},{"type":"card_game","game_type":"straight_flush","losers":false,"see_result":false,"my_hand":"h_3_0_3_1","opponent_hand":"h_0_0_0_0","win":true,"tie":false,"bet":0,"earnings":0,"expected_value":0.1875,"expected_earnings":0,"bet_rt":813,"block":2,"trial_type":"card_game","trial_index":59,"time_elapsed":272312,"internal_node_id":"0.0-59.0"},{"type":"card_game","game_type":"straight_flush","losers":false,"see_result":false,"my_hand":"h_0_0_0_1","opponent_hand":"h_2_0_2_0","win":false,"tie":false,"bet":0,"earnings":0,"expected_value":-0.9375,"expected_earnings":0,"bet_rt":641,"block":2,"trial_type":"card_game","trial_index":60,"time_elapsed":273454,"internal_node_id":"0.0-60.0"},{"type":"card_game","game_type":"straight_flush","losers":false,"see_result":false,"my_hand":"h_1_0_1_0","opponent_hand":"h_3_0_2_0","win":false,"tie":false,"bet":0,"earnings":0,"expected_value":-0.859375,"expected_earnings":0,"bet_rt":487,"block":2,"trial_type":"card_game","trial_index":61,"time_elapsed":274442,"internal_node_id":"0.0-61.0"},{"type":"card_game","game_type":"straight_flush","losers":false,"see_result":false,"my_hand":"h_0_0_2_0","opponent_hand":"h_0_0_3_0","win":false,"tie":false,"bet":0,"earnings":0,"expected_value":-0.71875,"expected_earnings":0,"bet_rt":963,"block":2,"trial_type":"card_game","trial_index":62,"time_elapsed":275907,"internal_node_id":"0.0-62.0"},{"type":"card_game","game_type":"straight_flush","losers":false,"see_result":false,"my_hand":"h_3_1_0_0","opponent_hand":"h_0_0_2_1","win":true,"tie":false,"bet":0,"earnings":0,"expected_value":-0.21875,"expected_earnings":0,"bet_rt":1756,"block":2,"trial_type":"card_game","trial_index":63,"time_elapsed":278163,"internal_node_id":"0.0-63.0"},{"type":"card_game","game_type":"straight_flush","losers":false,"see_result":false,"my_hand":"h_0_0_0_1","opponent_hand":"h_3_0_0_1","win":false,"tie":false,"bet":0,"earnings":0,"expected_value":-0.9375,"expected_earnings":0,"bet_rt":821,"block":2,"trial_type":"card_game","trial_index":64,"time_elapsed":279486,"internal_node_id":"0.0-64.0"},{"rt":3340,"stimulus":"<p>You earned a performance bonus of 50 cents on this set of trials.</p><p>You have earned a performance bonus of 85 cents over the experiment so far, plus $1.50 for making it to this phase.</p><p>Press any key to continue.</p>","key_press":38,"trial_type":"html-keyboard-response","trial_index":65,"time_elapsed":282827,"internal_node_id":"0.0-65.0"},{"rt":8130,"stimulus":"<p><font color='red'><b>Now, we want you to try to lose the game! For the remainder of the experiment, if you bet and lose, you'll gain the amount you bet, and if you bet and win, you'll lose the amount you bet.</b></font></p><p>As before, you won't win or lose anything if you tie your opponent, or if you don't bet.</p><p>Press any key to continue.</p>","key_press":38,"trial_type":"html-keyboard-response","trial_index":66,"time_elapsed":290957,"internal_node_id":"0.0-66.0"},{"rt":4714,"responses":"{\"Q0\":\"Bet and my hand loses.\"}","question_order":"[0]","response_trial_type":"attention_check","trial_type":"survey-multi-choice","trial_index":67,"time_elapsed":295672,"internal_node_id":"0.0-67.0"},{"rt":2695,"stimulus":"<p>Great, now you get to play a few hands!</p><p>As before, you won't see your results after you bet. You will just see your earnings at the end of the set of hands.</p><p>Press any key to continue.</p>","key_press":38,"trial_type":"html-keyboard-response","trial_index":68,"time_elapsed":298368,"internal_node_id":"0.0-68.0"},{"type":"card_game","game_type":"straight_flush","losers":true,"see_result":false,"my_hand":"h_3_1_0_0","opponent_hand":"h_3_0_0_0","win":false,"tie":false,"bet":2,"earnings":-10,"expected_value":0.21875,"expected_earnings":2.1875,"bet_rt":3687,"block":3,"trial_type":"card_game","trial_index":69,"time_elapsed":302556,"internal_node_id":"0.0-69.0"},{"type":"card_game","game_type":"straight_flush","losers":true,"see_result":false,"my_hand":"h_0_0_0_0","opponent_hand":"h_1_0_3_0","win":true,"tie":false,"bet":2,"earnings":10,"expected_value":0.984375,"expected_earnings":9.84375,"bet_rt":2126,"block":3,"trial_type":"card_game","trial_index":70,"time_elapsed":305186,"internal_node_id":"0.0-70.0"},{"type":"card_game","game_type":"straight_flush","losers":true,"see_result":false,"my_hand":"h_0_1_3_1","opponent_hand":"h_1_1_2_0","win":true,"tie":false,"bet":2,"earnings":10,"expected_value":0.15625,"expected_earnings":1.5625,"bet_rt":851,"block":3,"trial_type":"card_game","trial_index":71,"time_elapsed":306538,"internal_node_id":"0.0-71.0"},{"type":"card_game","game_type":"straight_flush","losers":true,"see_result":false,"my_hand":"h_3_1_1_0","opponent_hand":"h_1_0_3_1","win":false,"tie":true,"bet":2,"earnings":0,"expected_value":-0.03125,"expected_earnings":-0.3125,"bet_rt":766,"block":3,"trial_type":"card_game","trial_index":72,"time_elapsed":307805,"internal_node_id":"0.0-72.0"},{"type":"card_game","game_type":"straight_flush","losers":true,"see_result":false,"my_hand":"h_3_0_2_1","opponent_hand":"h_1_0_3_1","win":false,"tie":false,"bet":0,"earnings":0,"expected_value":-0.53125,"expected_earnings":0,"bet_rt":1276,"block":3,"trial_type":"card_game","trial_index":73,"time_elapsed":309583,"internal_node_id":"0.0-73.0"},{"type":"card_game","game_type":"straight_flush","losers":true,"see_result":false,"my_hand":"h_1_1_1_1","opponent_hand":"h_2_1_1_1","win":true,"tie":false,"bet":2,"earnings":10,"expected_value":0.765625,"expected_earnings":7.65625,"bet_rt":1023,"block":3,"trial_type":"card_game","trial_index":74,"time_elapsed":311109,"internal_node_id":"0.0-74.0"},{"type":"card_game","game_type":"straight_flush","losers":true,"see_result":false,"my_hand":"h_0_0_1_1","opponent_hand":"h_1_0_1_0","win":false,"tie":false,"bet":0,"earnings":0,"expected_value":-0.34375,"expected_earnings":0,"bet_rt":967,"block":3,"trial_type":"card_game","trial_index":75,"time_elapsed":312579,"internal_node_id":"0.0-75.0"},{"type":"card_game","game_type":"straight_flush","losers":true,"see_result":false,"my_hand":"h_1_0_3_0","opponent_hand":"h_3_1_1_0","win":true,"tie":false,"bet":2,"earnings":10,"expected_value":0.09375,"expected_earnings":0.9375,"bet_rt":1052,"block":3,"trial_type":"card_game","trial_index":76,"time_elapsed":314132,"internal_node_id":"0.0-76.0"},{"type":"card_game","game_type":"straight_flush","losers":true,"see_result":false,"my_hand":"h_2_0_2_0","opponent_hand":"h_1_1_3_0","win":true,"tie":false,"bet":2,"earnings":10,"expected_value":0.484375,"expected_earnings":4.84375,"bet_rt":872,"block":3,"trial_type":"card_game","trial_index":77,"time_elapsed":315506,"internal_node_id":"0.0-77.0"},{"type":"card_game","game_type":"straight_flush","losers":true,"see_result":false,"my_hand":"h_0_0_1_1","opponent_hand":"h_2_1_2_1","win":false,"tie":false,"bet":0,"earnings":0,"expected_value":-0.34375,"expected_earnings":0,"bet_rt":1603,"block":3,"trial_type":"card_game","trial_index":78,"time_elapsed":317610,"internal_node_id":"0.0-78.0"},{"type":"card_game","game_type":"straight_flush","losers":true,"see_result":false,"my_hand":"h_2_1_2_1","opponent_hand":"h_1_1_1_0","win":false,"tie":false,"bet":0,"earnings":0,"expected_value":0.390625,"expected_earnings":0,"bet_rt":889,"block":3,"trial_type":"card_game","trial_index":79,"time_elapsed":319001,"internal_node_id":"0.0-79.0"},{"type":"card_game","game_type":"straight_flush","losers":true,"see_result":false,"my_hand":"h_3_0_2_0","opponent_hand":"h_1_0_1_0","win":false,"tie":false,"bet":0,"earnings":0,"expected_value":-0.90625,"expected_earnings":0,"bet_rt":2104,"block":3,"trial_type":"card_game","trial_index":80,"time_elapsed":321606,"internal_node_id":"0.0-80.0"},{"type":"card_game","game_type":"straight_flush","losers":true,"see_result":false,"my_hand":"h_2_1_0_0","opponent_hand":"h_2_0_3_1","win":true,"tie":false,"bet":2,"earnings":10,"expected_value":0.59375,"expected_earnings":5.9375,"bet_rt":1142,"block":3,"trial_type":"card_game","trial_index":81,"time_elapsed":323248,"internal_node_id":"0.0-81.0"},{"type":"card_game","game_type":"straight_flush","losers":true,"see_result":false,"my_hand":"h_2_0_1_0","opponent_hand":"h_3_1_0_0","win":false,"tie":false,"bet":0,"earnings":0,"expected_value":-0.78125,"expected_earnings":0,"bet_rt":1471,"block":3,"trial_type":"card_game","trial_index":82,"time_elapsed":325221,"internal_node_id":"0.0-82.0"},{"type":"card_game","game_type":"straight_flush","losers":true,"see_result":false,"my_hand":"h_3_0_0_0","opponent_hand":"h_3_0_0_1","win":true,"tie":false,"bet":2,"earnings":10,"expected_value":0.34375,"expected_earnings":3.4375,"bet_rt":932,"block":3,"trial_type":"card_game","trial_index":83,"time_elapsed":326656,"internal_node_id":"0.0-83.0"},{"type":"card_game","game_type":"straight_flush","losers":true,"see_result":false,"my_hand":"h_0_1_2_1","opponent_hand":"h_1_1_0_0","win":true,"tie":false,"bet":2,"earnings":10,"expected_value":0.53125,"expected_earnings":5.3125,"bet_rt":1007,"block":3,"trial_type":"card_game","trial_index":84,"time_elapsed":328164,"internal_node_id":"0.0-84.0"},{"type":"card_game","game_type":"straight_flush","losers":true,"see_result":false,"my_hand":"h_2_0_1_1","opponent_hand":"h_0_1_0_1","win":false,"tie":false,"bet":0,"earnings":0,"expected_value":-0.40625,"expected_earnings":0,"bet_rt":1108,"block":3,"trial_type":"card_game","trial_index":85,"time_elapsed":329772,"internal_node_id":"0.0-85.0"},{"type":"card_game","game_type":"straight_flush","losers":true,"see_result":false,"my_hand":"h_0_0_0_0","opponent_hand":"h_0_0_2_1","win":true,"tie":false,"bet":2,"earnings":10,"expected_value":0.984375,"expected_earnings":9.84375,"bet_rt":986,"block":3,"trial_type":"card_game","trial_index":86,"time_elapsed":331260,"internal_node_id":"0.0-86.0"},{"type":"card_game","game_type":"straight_flush","losers":true,"see_result":false,"my_hand":"h_2_1_3_1","opponent_hand":"h_3_0_2_0","win":false,"tie":false,"bet":0,"earnings":0,"expected_value":-0.96875,"expected_earnings":0,"bet_rt":1267,"block":3,"trial_type":"card_game","trial_index":87,"time_elapsed":333027,"internal_node_id":"0.0-87.0"},{"type":"card_game","game_type":"straight_flush","losers":true,"see_result":false,"my_hand":"h_2_1_0_0","opponent_hand":"h_1_0_0_1","win":true,"tie":false,"bet":2,"earnings":10,"expected_value":0.59375,"expected_earnings":5.9375,"bet_rt":1043,"block":3,"trial_type":"card_game","trial_index":88,"time_elapsed":334572,"internal_node_id":"0.0-88.0"},{"type":"card_game","game_type":"straight_flush","losers":true,"see_result":false,"my_hand":"h_1_1_0_1","opponent_hand":"h_2_1_3_1","win":true,"tie":false,"bet":0,"earnings":0,"expected_value":-0.71875,"expected_earnings":0,"bet_rt":1104,"block":3,"trial_type":"card_game","trial_index":89,"time_elapsed":336177,"internal_node_id":"0.0-89.0"},{"type":"card_game","game_type":"straight_flush","losers":true,"see_result":false,"my_hand":"h_3_1_1_0","opponent_hand":"h_0_1_0_1","win":false,"tie":false,"bet":2,"earnings":-10,"expected_value":-0.03125,"expected_earnings":-0.3125,"bet_rt":1251,"block":3,"trial_type":"card_game","trial_index":90,"time_elapsed":337929,"internal_node_id":"0.0-90.0"},{"type":"card_game","game_type":"straight_flush","losers":true,"see_result":false,"my_hand":"h_3_1_2_0","opponent_hand":"h_2_1_3_0","win":false,"tie":false,"bet":0,"earnings":0,"expected_value":-0.59375,"expected_earnings":0,"bet_rt":1015,"block":3,"trial_type":"card_game","trial_index":91,"time_elapsed":339445,"internal_node_id":"0.0-91.0"},{"type":"card_game","game_type":"straight_flush","losers":true,"see_result":false,"my_hand":"h_3_1_3_0","opponent_hand":"h_1_0_1_1","win":false,"tie":false,"bet":2,"earnings":-10,"expected_value":-0.1875,"expected_earnings":-1.875,"bet_rt":846,"block":3,"trial_type":"card_game","trial_index":92,"time_elapsed":340791,"internal_node_id":"0.0-92.0"},{"rt":5793,"stimulus":"<p>You earned a performance bonus of 60 cents on this set of trials.</p><p>You have earned a performance bonus of 145 cents over the experiment so far, plus $1.50 for making it to this phase.</p><p>Press any key to continue.</p>","key_press":38,"trial_type":"html-keyboard-response","trial_index":93,"time_elapsed":346585,"internal_node_id":"0.0-93.0"},{"rt":1510,"stimulus":"<p>Great, we just have a few questions to ask you and then you'll be finished!</p><p>Press any key to continue.</p>","key_press":38,"trial_type":"html-keyboard-response","trial_index":94,"time_elapsed":348096,"internal_node_id":"0.0-94.0"},{"rt":6171,"responses":"{\"Q0\":4,\"Q1\":4,\"Q2\":4}","question_order":"[0,1,2]","response_trial_type":"debrief","trial_type":"survey-likert","trial_index":95,"time_elapsed":354269,"internal_node_id":"0.0-95.0"},{"rt":7778,"responses":"{\"Q0\":\"25-35\",\"Q1\":\"Associates or other two-year degree\",\"Q2\":\"Male\",\"Q3\":\"White\"}","question_order":"[0,1,2,3]","response_trial_type":"demographics","trial_type":"survey-multi-choice","trial_index":96,"time_elapsed":362047,"internal_node_id":"0.0-96.0"},{"rt":9115,"responses":"{\"Q0\":\"I enjoyed this HIT, thank you!\"}","response_trial_type":"comments","trial_type":"survey-text","trial_index":97,"time_elapsed":371165,"internal_node_id":"0.0-97.0"}]