[{"view_history":"[{\"page_index\":0,\"viewing_time\":32415.780000039376},{\"page_index\":1,\"viewing_time\":20706.244999950286},{\"page_index\":2,\"viewing_time\":19840.00000002561},{\"page_index\":3,\"viewing_time\":96907.26499998709},{\"page_index\":4,\"viewing_time\":40082.74000004167},{\"page_index\":5,\"viewing_time\":77495.32499996712},{\"page_index\":6,\"viewing_time\":27709.015000029467}]","rt":315157.2150000138,"trial_type":"instructions","trial_index":0,"time_elapsed":315171,"internal_node_id":"0.0-0.0"},{"type":"hand_comparison","hand_win":"h_1_0_2_1","hand_lose":"h_3_0_0_0","explanation":"Adjacent cards beat non-adjacent.","hand_indices":[1,0],"hand_choice":1,"correct":true,"rt":22396,"trial_type":"hand_comparison","trial_index":1,"time_elapsed":339569,"internal_node_id":"0.0-1.0"},{"type":"hand_comparison","hand_win":"h_0_0_1_0","hand_lose":"h_3_0_2_1","explanation":"Same-suit adjacent beats different suit.","hand_indices":[1,0],"hand_choice":1,"correct":true,"rt":8798,"trial_type":"hand_comparison","trial_index":2,"time_elapsed":350371,"internal_node_id":"0.0-2.0"},{"type":"hand_comparison","hand_win":"h_3_0_0_1","hand_lose":"h_2_0_2_1","explanation":"Highest card breaks ties.","hand_indices":[0,1],"hand_choice":0,"correct":true,"rt":30867,"trial_type":"hand_comparison","trial_index":3,"time_elapsed":383241,"internal_node_id":"0.0-3.0"},{"type":"hand_comparison","hand_win":"h_3_1_2_1","hand_lose":"h_2_0_3_0","explanation":"Black cards beat red cards if the numbers are tied.","hand_indices":[0,1],"hand_choice":0,"correct":true,"rt":9265,"trial_type":"hand_comparison","trial_index":4,"time_elapsed":394507,"internal_node_id":"0.0-4.0"},{"rt":20358.039999962784,"stimulus":"<p><b>Congratulations, you passed the test, and will get to proceed to phase 2!</b></p><p>You have earned a $1.50 bonus, and will be awarded a performance bonus based on your bets in the next phase.</p><p>Press any key to continue.</p>","key_press":32,"trial_type":"html-keyboard-response","trial_index":5,"time_elapsed":414869,"internal_node_id":"0.0-5.0"},{"rt":25206.0749999946,"stimulus":"<p>Now you get to play a few hands. After you bet, we'll show you your opponent's hand and how much you won (or lost), and at the end of these hands we'll tell you your total earnings.</p><p>Press any key to continue.</p>","key_press":32,"trial_type":"html-keyboard-response","trial_index":6,"time_elapsed":440081,"internal_node_id":"0.0-6.0"},{"type":"card_game","game_type":"straight_flush","losers":false,"see_result":true,"my_hand":"h_3_1_3_1","opponent_hand":"h_3_1_2_0","win":false,"tie":false,"bet":0,"earnings":0,"expected_value":0.234375,"expected_earnings":0,"bet_rt":20429,"block":1,"trial_type":"card_game","trial_index":7,"time_elapsed":462076,"internal_node_id":"0.0-7.0"},{"type":"card_game","game_type":"straight_flush","losers":false,"see_result":true,"my_hand":"h_1_1_2_1","opponent_hand":"h_1_0_3_0","win":true,"tie":false,"bet":2,"earnings":10,"expected_value":0.84375,"expected_earnings":8.4375,"bet_rt":17468,"block":1,"trial_type":"card_game","trial_index":8,"time_elapsed":481115,"internal_node_id":"0.0-8.0"},{"type":"card_game","game_type":"straight_flush","losers":false,"see_result":true,"my_hand":"h_1_1_0_1","opponent_hand":"h_3_1_0_0","win":true,"tie":false,"bet":1,"earnings":5,"expected_value":0.71875,"expected_earnings":3.59375,"bet_rt":6592,"block":1,"trial_type":"card_game","trial_index":9,"time_elapsed":489253,"internal_node_id":"0.0-9.0"},{"type":"card_game","game_type":"straight_flush","losers":false,"see_result":true,"my_hand":"h_1_0_3_1","opponent_hand":"h_3_1_3_0","win":false,"tie":false,"bet":0,"earnings":0,"expected_value":0.03125,"expected_earnings":0,"bet_rt":14822,"block":1,"trial_type":"card_game","trial_index":10,"time_elapsed":505631,"internal_node_id":"0.0-10.0"},{"type":"card_game","game_type":"straight_flush","losers":false,"see_result":true,"my_hand":"h_3_0_2_1","opponent_hand":"h_1_0_1_1","win":true,"tie":false,"bet":1,"earnings":5,"expected_value":0.53125,"expected_earnings":2.65625,"bet_rt":20861,"block":1,"trial_type":"card_game","trial_index":11,"time_elapsed":528076,"internal_node_id":"0.0-11.0"},{"type":"card_game","game_type":"straight_flush","losers":false,"see_result":true,"my_hand":"h_0_1_0_1","opponent_hand":"h_2_1_0_0","win":false,"tie":false,"bet":0,"earnings":0,"expected_value":-0.890625,"expected_earnings":0,"bet_rt":6501,"block":1,"trial_type":"card_game","trial_index":12,"time_elapsed":536151,"internal_node_id":"0.0-12.0"},{"type":"card_game","game_type":"straight_flush","losers":false,"see_result":true,"my_hand":"h_0_1_1_0","opponent_hand":"h_1_0_2_1","win":false,"tie":false,"bet":1,"earnings":-5,"expected_value":0.28125,"expected_earnings":1.40625,"bet_rt":4939,"block":1,"trial_type":"card_game","trial_index":13,"time_elapsed":542670,"internal_node_id":"0.0-13.0"},{"type":"card_game","game_type":"straight_flush","losers":false,"see_result":true,"my_hand":"h_2_0_2_0","opponent_hand":"h_2_1_1_1","win":false,"tie":false,"bet":0,"earnings":0,"expected_value":-0.484375,"expected_earnings":0,"bet_rt":8886,"block":1,"trial_type":"card_game","trial_index":14,"time_elapsed":553090,"internal_node_id":"0.0-14.0"},{"type":"card_game","game_type":"straight_flush","losers":false,"see_result":true,"my_hand":"h_2_0_1_0","opponent_hand":"h_2_0_0_0","win":true,"tie":false,"bet":2,"earnings":10,"expected_value":0.78125,"expected_earnings":7.8125,"bet_rt":2528,"block":1,"trial_type":"card_game","trial_index":15,"time_elapsed":557163,"internal_node_id":"0.0-15.0"},{"type":"card_game","game_type":"straight_flush","losers":false,"see_result":true,"my_hand":"h_2_1_3_1","opponent_hand":"h_3_1_0_0","win":true,"tie":false,"bet":2,"earnings":10,"expected_value":0.96875,"expected_earnings":9.6875,"bet_rt":3037,"block":1,"trial_type":"card_game","trial_index":16,"time_elapsed":561760,"internal_node_id":"0.0-16.0"},{"type":"card_game","game_type":"straight_flush","losers":false,"see_result":true,"my_hand":"h_2_0_0_0","opponent_hand":"h_1_1_2_1","win":false,"tie":false,"bet":0,"earnings":0,"expected_value":-0.71875,"expected_earnings":0,"bet_rt":21554,"block":1,"trial_type":"card_game","trial_index":17,"time_elapsed":584869,"internal_node_id":"0.0-17.0"},{"type":"card_game","game_type":"straight_flush","losers":false,"see_result":true,"my_hand":"h_2_0_1_1","opponent_hand":"h_1_1_1_1","win":true,"tie":false,"bet":1,"earnings":5,"expected_value":0.40625,"expected_earnings":2.03125,"bet_rt":14146,"block":1,"trial_type":"card_game","trial_index":18,"time_elapsed":600583,"internal_node_id":"0.0-18.0"},{"type":"card_game","game_type":"straight_flush","losers":false,"see_result":true,"my_hand":"h_1_1_1_1","opponent_hand":"h_0_1_3_0","win":false,"tie":false,"bet":0,"earnings":0,"expected_value":-0.765625,"expected_earnings":0,"bet_rt":2239,"block":1,"trial_type":"card_game","trial_index":19,"time_elapsed":604378,"internal_node_id":"0.0-19.0"},{"type":"card_game","game_type":"straight_flush","losers":false,"see_result":true,"my_hand":"h_2_1_0_1","opponent_hand":"h_0_1_0_0","win":true,"tie":false,"bet":0,"earnings":0,"expected_value":-0.53125,"expected_earnings":0,"bet_rt":2941,"block":1,"trial_type":"card_game","trial_index":20,"time_elapsed":608883,"internal_node_id":"0.0-20.0"},{"type":"card_game","game_type":"straight_flush","losers":false,"see_result":true,"my_hand":"h_2_1_3_1","opponent_hand":"h_0_1_1_0","win":true,"tie":false,"bet":2,"earnings":10,"expected_value":0.96875,"expected_earnings":9.6875,"bet_rt":2508,"block":1,"trial_type":"card_game","trial_index":21,"time_elapsed":612950,"internal_node_id":"0.0-21.0"},{"type":"card_game","game_type":"straight_flush","losers":false,"see_result":true,"my_hand":"h_0_0_3_1","opponent_hand":"h_0_0_0_0","win":true,"tie":false,"bet":0,"earnings":0,"expected_value":-0.21875,"expected_earnings":0,"bet_rt":2597,"block":1,"trial_type":"card_game","trial_index":22,"time_elapsed":617086,"internal_node_id":"0.0-22.0"},{"type":"card_game","game_type":"straight_flush","losers":false,"see_result":true,"my_hand":"h_3_0_3_0","opponent_hand":"h_2_1_0_0","win":true,"tie":false,"bet":0,"earnings":0,"expected_value":0.140625,"expected_earnings":0,"bet_rt":2708,"block":1,"trial_type":"card_game","trial_index":23,"time_elapsed":621360,"internal_node_id":"0.0-23.0"},{"type":"card_game","game_type":"straight_flush","losers":false,"see_result":true,"my_hand":"h_2_0_2_1","opponent_hand":"h_2_0_0_0","win":true,"tie":false,"bet":0,"earnings":0,"expected_value":-0.4375,"expected_earnings":0,"bet_rt":3092,"block":1,"trial_type":"card_game","trial_index":24,"time_elapsed":626015,"internal_node_id":"0.0-24.0"},{"type":"card_game","game_type":"straight_flush","losers":false,"see_result":true,"my_hand":"h_0_0_2_1","opponent_hand":"h_1_0_3_1","win":false,"tie":false,"bet":0,"earnings":0,"expected_value":-0.59375,"expected_earnings":0,"bet_rt":3803,"block":1,"trial_type":"card_game","trial_index":25,"time_elapsed":631391,"internal_node_id":"0.0-25.0"},{"type":"card_game","game_type":"straight_flush","losers":false,"see_result":true,"my_hand":"h_3_0_0_1","opponent_hand":"h_0_0_1_0","win":false,"tie":false,"bet":0,"earnings":0,"expected_value":-0.28125,"expected_earnings":0,"bet_rt":7627,"block":1,"trial_type":"card_game","trial_index":26,"time_elapsed":640600,"internal_node_id":"0.0-26.0"},{"type":"card_game","game_type":"straight_flush","losers":false,"see_result":true,"my_hand":"h_1_0_2_1","opponent_hand":"h_3_1_2_0","win":false,"tie":false,"bet":1,"earnings":-5,"expected_value":0.46875,"expected_earnings":2.34375,"bet_rt":2213,"block":1,"trial_type":"card_game","trial_index":27,"time_elapsed":644367,"internal_node_id":"0.0-27.0"},{"type":"card_game","game_type":"straight_flush","losers":false,"see_result":true,"my_hand":"h_0_1_1_0","opponent_hand":"h_0_0_1_1","win":false,"tie":false,"bet":1,"earnings":-5,"expected_value":0.28125,"expected_earnings":1.40625,"bet_rt":1841,"block":1,"trial_type":"card_game","trial_index":28,"time_elapsed":647778,"internal_node_id":"0.0-28.0"},{"type":"card_game","game_type":"straight_flush","losers":false,"see_result":true,"my_hand":"h_1_1_3_0","opponent_hand":"h_0_0_3_1","win":true,"tie":false,"bet":0,"earnings":0,"expected_value":-0.03125,"expected_earnings":0,"bet_rt":3244,"block":1,"trial_type":"card_game","trial_index":29,"time_elapsed":652564,"internal_node_id":"0.0-29.0"},{"type":"card_game","game_type":"straight_flush","losers":false,"see_result":true,"my_hand":"h_2_0_0_0","opponent_hand":"h_0_0_1_1","win":false,"tie":false,"bet":0,"earnings":0,"expected_value":-0.71875,"expected_earnings":0,"bet_rt":3279,"block":1,"trial_type":"card_game","trial_index":30,"time_elapsed":657418,"internal_node_id":"0.0-30.0"},{"type":"card_game","game_type":"straight_flush","losers":false,"see_result":true,"my_hand":"h_1_1_3_1","opponent_hand":"h_3_0_3_1","win":false,"tie":false,"bet":1,"earnings":-5,"expected_value":0.09375,"expected_earnings":0.46875,"bet_rt":7984,"block":1,"trial_type":"card_game","trial_index":31,"time_elapsed":666964,"internal_node_id":"0.0-31.0"},{"type":"card_game","game_type":"straight_flush","losers":false,"see_result":true,"my_hand":"h_0_0_0_1","opponent_hand":"h_2_0_1_1","win":false,"tie":false,"bet":0,"earnings":0,"expected_value":-0.9375,"expected_earnings":0,"bet_rt":2370,"block":1,"trial_type":"card_game","trial_index":32,"time_elapsed":670882,"internal_node_id":"0.0-32.0"},{"type":"card_game","game_type":"straight_flush","losers":false,"see_result":true,"my_hand":"h_1_1_3_0","opponent_hand":"h_2_0_1_0","win":false,"tie":false,"bet":0,"earnings":0,"expected_value":-0.03125,"expected_earnings":0,"bet_rt":1677,"block":1,"trial_type":"card_game","trial_index":33,"time_elapsed":674110,"internal_node_id":"0.0-33.0"},{"type":"card_game","game_type":"straight_flush","losers":false,"see_result":true,"my_hand":"h_2_1_3_0","opponent_hand":"h_1_1_3_0","win":true,"tie":false,"bet":1,"earnings":5,"expected_value":0.53125,"expected_earnings":2.65625,"bet_rt":3322,"block":1,"trial_type":"card_game","trial_index":34,"time_elapsed":678979,"internal_node_id":"0.0-34.0"},{"type":"card_game","game_type":"straight_flush","losers":false,"see_result":true,"my_hand":"h_0_0_1_0","opponent_hand":"h_0_0_3_0","win":true,"tie":false,"bet":2,"earnings":10,"expected_value":0.65625,"expected_earnings":6.5625,"bet_rt":2054,"block":1,"trial_type":"card_game","trial_index":35,"time_elapsed":682607,"internal_node_id":"0.0-35.0"},{"type":"card_game","game_type":"straight_flush","losers":false,"see_result":true,"my_hand":"h_1_0_1_0","opponent_hand":"h_1_1_3_1","win":false,"tie":false,"bet":0,"earnings":0,"expected_value":-0.859375,"expected_earnings":0,"bet_rt":1572,"block":1,"trial_type":"card_game","trial_index":36,"time_elapsed":685747,"internal_node_id":"0.0-36.0"},{"type":"card_game","game_type":"straight_flush","losers":false,"see_result":true,"my_hand":"h_0_1_3_1","opponent_hand":"h_2_0_1_0","win":false,"tie":false,"bet":0,"earnings":0,"expected_value":-0.15625,"expected_earnings":0,"bet_rt":1464,"block":1,"trial_type":"card_game","trial_index":37,"time_elapsed":688795,"internal_node_id":"0.0-37.0"},{"type":"card_game","game_type":"straight_flush","losers":false,"see_result":true,"my_hand":"h_0_1_3_0","opponent_hand":"h_3_1_3_1","win":false,"tie":false,"bet":0,"earnings":0,"expected_value":-0.28125,"expected_earnings":0,"bet_rt":1398,"block":1,"trial_type":"card_game","trial_index":38,"time_elapsed":691757,"internal_node_id":"0.0-38.0"},{"rt":11561.195000016596,"stimulus":"<p>You earned a performance bonus of 50 cents on this set of trials, plus $1.50 for making it to this phase.</p><p>Press any key to continue.</p>","key_press":32,"trial_type":"html-keyboard-response","trial_index":39,"time_elapsed":703321,"internal_node_id":"0.0-39.0"},{"rt":20149.139999994077,"stimulus":"<p>To test how well you understand the game, we'll now give you a series of hands where you won't see your results after you bet. You will just see your earnings at the end of the set of hands.</p><p>Press any key to continue.</p>","key_press":32,"trial_type":"html-keyboard-response","trial_index":40,"time_elapsed":723472,"internal_node_id":"0.0-40.0"},{"type":"card_game","game_type":"straight_flush","losers":false,"see_result":false,"my_hand":"h_0_1_0_1","opponent_hand":"h_1_0_1_0","win":false,"tie":false,"bet":0,"earnings":0,"expected_value":-0.890625,"expected_earnings":0,"bet_rt":5093,"block":2,"trial_type":"card_game","trial_index":41,"time_elapsed":729071,"internal_node_id":"0.0-41.0"},{"type":"card_game","game_type":"straight_flush","losers":false,"see_result":false,"my_hand":"h_1_0_3_0","opponent_hand":"h_2_0_2_1","win":true,"tie":false,"bet":0,"earnings":0,"expected_value":-0.09375,"expected_earnings":0,"bet_rt":6176,"block":2,"trial_type":"card_game","trial_index":42,"time_elapsed":735751,"internal_node_id":"0.0-42.0"},{"type":"card_game","game_type":"straight_flush","losers":false,"see_result":false,"my_hand":"h_3_0_0_1","opponent_hand":"h_3_1_3_0","win":false,"tie":false,"bet":0,"earnings":0,"expected_value":-0.28125,"expected_earnings":0,"bet_rt":3725,"block":2,"trial_type":"card_game","trial_index":43,"time_elapsed":739979,"internal_node_id":"0.0-43.0"},{"type":"card_game","game_type":"straight_flush","losers":false,"see_result":false,"my_hand":"h_1_0_2_0","opponent_hand":"h_0_0_3_0","win":true,"tie":false,"bet":2,"earnings":10,"expected_value":0.78125,"expected_earnings":7.8125,"bet_rt":3479,"block":2,"trial_type":"card_game","trial_index":44,"time_elapsed":743963,"internal_node_id":"0.0-44.0"},{"type":"card_game","game_type":"straight_flush","losers":false,"see_result":false,"my_hand":"h_1_0_3_1","opponent_hand":"h_0_0_3_1","win":true,"tie":false,"bet":0,"earnings":0,"expected_value":0.03125,"expected_earnings":0,"bet_rt":6594,"block":2,"trial_type":"card_game","trial_index":45,"time_elapsed":751058,"internal_node_id":"0.0-45.0"},{"type":"card_game","game_type":"straight_flush","losers":false,"see_result":false,"my_hand":"h_0_1_3_1","opponent_hand":"h_3_1_0_0","win":true,"tie":false,"bet":0,"earnings":0,"expected_value":-0.15625,"expected_earnings":0,"bet_rt":1077,"block":2,"trial_type":"card_game","trial_index":46,"time_elapsed":752642,"internal_node_id":"0.0-46.0"},{"type":"card_game","game_type":"straight_flush","losers":false,"see_result":false,"my_hand":"h_1_1_2_0","opponent_hand":"h_2_1_0_0","win":true,"tie":false,"bet":1,"earnings":5,"expected_value":0.40625,"expected_earnings":2.03125,"bet_rt":4960,"block":2,"trial_type":"card_game","trial_index":47,"time_elapsed":758105,"internal_node_id":"0.0-47.0"},{"type":"card_game","game_type":"straight_flush","losers":false,"see_result":false,"my_hand":"h_0_0_3_0","opponent_hand":"h_2_1_1_1","win":false,"tie":false,"bet":0,"earnings":0,"expected_value":-0.34375,"expected_earnings":0,"bet_rt":2595,"block":2,"trial_type":"card_game","trial_index":48,"time_elapsed":761203,"internal_node_id":"0.0-48.0"},{"type":"card_game","game_type":"straight_flush","losers":false,"see_result":false,"my_hand":"h_1_1_1_1","opponent_hand":"h_3_1_1_1","win":false,"tie":false,"bet":0,"earnings":0,"expected_value":-0.765625,"expected_earnings":0,"bet_rt":1233,"block":2,"trial_type":"card_game","trial_index":49,"time_elapsed":762937,"internal_node_id":"0.0-49.0"},{"type":"card_game","game_type":"straight_flush","losers":false,"see_result":false,"my_hand":"h_0_0_0_1","opponent_hand":"h_0_0_2_0","win":false,"tie":false,"bet":0,"earnings":0,"expected_value":-0.9375,"expected_earnings":0,"bet_rt":3758,"block":2,"trial_type":"card_game","trial_index":50,"time_elapsed":767200,"internal_node_id":"0.0-50.0"},{"type":"card_game","game_type":"straight_flush","losers":false,"see_result":false,"my_hand":"h_2_1_0_0","opponent_hand":"h_1_1_2_1","win":false,"tie":false,"bet":0,"earnings":0,"expected_value":-0.59375,"expected_earnings":0,"bet_rt":1250,"block":2,"trial_type":"card_game","trial_index":51,"time_elapsed":768955,"internal_node_id":"0.0-51.0"},{"type":"card_game","game_type":"straight_flush","losers":false,"see_result":false,"my_hand":"h_3_0_2_0","opponent_hand":"h_3_0_0_0","win":true,"tie":false,"bet":2,"earnings":10,"expected_value":0.90625,"expected_earnings":9.0625,"bet_rt":1576,"block":2,"trial_type":"card_game","trial_index":52,"time_elapsed":771031,"internal_node_id":"0.0-52.0"},{"type":"card_game","game_type":"straight_flush","losers":false,"see_result":false,"my_hand":"h_1_0_2_1","opponent_hand":"h_1_0_1_0","win":true,"tie":false,"bet":1,"earnings":5,"expected_value":0.46875,"expected_earnings":2.34375,"bet_rt":1933,"block":2,"trial_type":"card_game","trial_index":53,"time_elapsed":773466,"internal_node_id":"0.0-53.0"},{"type":"card_game","game_type":"straight_flush","losers":false,"see_result":false,"my_hand":"h_2_1_3_0","opponent_hand":"h_1_0_0_0","win":false,"tie":false,"bet":1,"earnings":-5,"expected_value":0.53125,"expected_earnings":2.65625,"bet_rt":1449,"block":2,"trial_type":"card_game","trial_index":54,"time_elapsed":775417,"internal_node_id":"0.0-54.0"},{"type":"card_game","game_type":"straight_flush","losers":false,"see_result":false,"my_hand":"h_3_0_3_0","opponent_hand":"h_2_0_1_1","win":false,"tie":false,"bet":0,"earnings":0,"expected_value":0.140625,"expected_earnings":0,"bet_rt":3079,"block":2,"trial_type":"card_game","trial_index":55,"time_elapsed":778997,"internal_node_id":"0.0-55.0"},{"type":"card_game","game_type":"straight_flush","losers":false,"see_result":false,"my_hand":"h_1_1_0_1","opponent_hand":"h_1_0_1_1","win":true,"tie":false,"bet":2,"earnings":10,"expected_value":0.71875,"expected_earnings":7.1875,"bet_rt":1669,"block":2,"trial_type":"card_game","trial_index":56,"time_elapsed":781169,"internal_node_id":"0.0-56.0"},{"type":"card_game","game_type":"straight_flush","losers":false,"see_result":false,"my_hand":"h_0_1_3_1","opponent_hand":"h_2_1_1_1","win":false,"tie":false,"bet":0,"earnings":0,"expected_value":-0.15625,"expected_earnings":0,"bet_rt":4990,"block":2,"trial_type":"card_game","trial_index":57,"time_elapsed":786665,"internal_node_id":"0.0-57.0"},{"type":"card_game","game_type":"straight_flush","losers":false,"see_result":false,"my_hand":"h_2_0_2_0","opponent_hand":"h_3_1_1_1","win":false,"tie":false,"bet":0,"earnings":0,"expected_value":-0.484375,"expected_earnings":0,"bet_rt":956,"block":2,"trial_type":"card_game","trial_index":58,"time_elapsed":788122,"internal_node_id":"0.0-58.0"},{"type":"card_game","game_type":"straight_flush","losers":false,"see_result":false,"my_hand":"h_2_1_0_0","opponent_hand":"h_2_1_0_0","win":false,"tie":true,"bet":0,"earnings":0,"expected_value":-0.59375,"expected_earnings":0,"bet_rt":2960,"block":2,"trial_type":"card_game","trial_index":59,"time_elapsed":791584,"internal_node_id":"0.0-59.0"},{"type":"card_game","game_type":"straight_flush","losers":false,"see_result":false,"my_hand":"h_2_1_1_1","opponent_hand":"h_0_1_0_1","win":true,"tie":false,"bet":2,"earnings":10,"expected_value":0.84375,"expected_earnings":8.4375,"bet_rt":1490,"block":2,"trial_type":"card_game","trial_index":60,"time_elapsed":793576,"internal_node_id":"0.0-60.0"},{"type":"card_game","game_type":"straight_flush","losers":false,"see_result":false,"my_hand":"h_0_0_1_0","opponent_hand":"h_1_0_2_0","win":false,"tie":false,"bet":2,"earnings":-10,"expected_value":0.65625,"expected_earnings":6.5625,"bet_rt":6241,"block":2,"trial_type":"card_game","trial_index":61,"time_elapsed":800319,"internal_node_id":"0.0-61.0"},{"type":"card_game","game_type":"straight_flush","losers":false,"see_result":false,"my_hand":"h_1_1_3_1","opponent_hand":"h_2_0_0_1","win":true,"tie":false,"bet":0,"earnings":0,"expected_value":0.09375,"expected_earnings":0,"bet_rt":1514,"block":2,"trial_type":"card_game","trial_index":62,"time_elapsed":802334,"internal_node_id":"0.0-62.0"},{"type":"card_game","game_type":"straight_flush","losers":false,"see_result":false,"my_hand":"h_2_0_0_1","opponent_hand":"h_1_0_0_0","win":false,"tie":false,"bet":0,"earnings":0,"expected_value":-0.65625,"expected_earnings":0,"bet_rt":1038,"block":2,"trial_type":"card_game","trial_index":63,"time_elapsed":803875,"internal_node_id":"0.0-63.0"},{"type":"card_game","game_type":"straight_flush","losers":false,"see_result":false,"my_hand":"h_0_0_1_1","opponent_hand":"h_1_0_3_0","win":true,"tie":false,"bet":1,"earnings":5,"expected_value":0.34375,"expected_earnings":1.71875,"bet_rt":4618,"block":2,"trial_type":"card_game","trial_index":64,"time_elapsed":808999,"internal_node_id":"0.0-64.0"},{"rt":14681.664999981876,"stimulus":"<p>You earned a performance bonus of 50 cents on this set of trials.</p><p>You have earned a performance bonus of 100 cents over the experiment so far, plus $1.50 for making it to this phase.</p><p>Press any key to continue.</p>","key_press":32,"trial_type":"html-keyboard-response","trial_index":65,"time_elapsed":823691,"internal_node_id":"0.0-65.0"},{"rt":16931.225000007544,"stimulus":"<p><font color='red'><b>Now, we want you to try to lose the game! For the remainder of the experiment, if you bet and lose, you'll gain the amount you bet, and if you bet and win, you'll lose the amount you bet.</b></font></p><p>As before, you won't win or lose anything if you tie your opponent, or if you don't bet.</p><p>Press any key to continue.</p>","key_press":32,"trial_type":"html-keyboard-response","trial_index":66,"time_elapsed":840629,"internal_node_id":"0.0-66.0"},{"rt":12440.750000008848,"responses":"{\"Q0\":\"Bet and my hand loses.\"}","question_order":"[0]","response_trial_type":"attention_check","trial_type":"survey-multi-choice","trial_index":67,"time_elapsed":853075,"internal_node_id":"0.0-67.0"},{"rt":5209.440000005998,"stimulus":"<p>Great, now you get to play a few hands!</p><p>As before, you won't see your results after you bet. You will just see your earnings at the end of the set of hands.</p><p>Press any key to continue.</p>","key_press":32,"trial_type":"html-keyboard-response","trial_index":68,"time_elapsed":858286,"internal_node_id":"0.0-68.0"},{"type":"card_game","game_type":"straight_flush","losers":true,"see_result":false,"my_hand":"h_2_0_3_0","opponent_hand":"h_1_1_1_0","win":false,"tie":false,"bet":0,"earnings":0,"expected_value":-0.90625,"expected_earnings":0,"bet_rt":9016,"block":3,"trial_type":"card_game","trial_index":69,"time_elapsed":867804,"internal_node_id":"0.0-69.0"},{"type":"card_game","game_type":"straight_flush","losers":true,"see_result":false,"my_hand":"h_0_1_3_0","opponent_hand":"h_0_1_1_1","win":true,"tie":false,"bet":1,"earnings":5,"expected_value":0.28125,"expected_earnings":1.40625,"bet_rt":6944,"block":3,"trial_type":"card_game","trial_index":70,"time_elapsed":875250,"internal_node_id":"0.0-70.0"},{"type":"card_game","game_type":"straight_flush","losers":true,"see_result":false,"my_hand":"h_3_1_1_0","opponent_hand":"h_1_1_1_0","win":false,"tie":false,"bet":1,"earnings":-5,"expected_value":-0.03125,"expected_earnings":-0.15625,"bet_rt":10470,"block":3,"trial_type":"card_game","trial_index":71,"time_elapsed":886223,"internal_node_id":"0.0-71.0"},{"type":"card_game","game_type":"straight_flush","losers":true,"see_result":false,"my_hand":"h_0_1_0_0","opponent_hand":"h_0_0_3_1","win":true,"tie":false,"bet":2,"earnings":10,"expected_value":0.9375,"expected_earnings":9.375,"bet_rt":2464,"block":3,"trial_type":"card_game","trial_index":72,"time_elapsed":889190,"internal_node_id":"0.0-72.0"},{"type":"card_game","game_type":"straight_flush","losers":true,"see_result":false,"my_hand":"h_2_0_3_1","opponent_hand":"h_2_1_0_0","win":false,"tie":false,"bet":0,"earnings":0,"expected_value":-0.59375,"expected_earnings":0,"bet_rt":3376,"block":3,"trial_type":"card_game","trial_index":73,"time_elapsed":893068,"internal_node_id":"0.0-73.0"},{"type":"card_game","game_type":"straight_flush","losers":true,"see_result":false,"my_hand":"h_3_1_0_0","opponent_hand":"h_0_1_0_0","win":false,"tie":false,"bet":1,"earnings":-5,"expected_value":0.21875,"expected_earnings":1.09375,"bet_rt":4304,"block":3,"trial_type":"card_game","trial_index":74,"time_elapsed":897876,"internal_node_id":"0.0-74.0"},{"type":"card_game","game_type":"straight_flush","losers":true,"see_result":false,"my_hand":"h_2_0_0_1","opponent_hand":"h_2_0_2_0","win":true,"tie":false,"bet":2,"earnings":10,"expected_value":0.65625,"expected_earnings":6.5625,"bet_rt":2843,"block":3,"trial_type":"card_game","trial_index":75,"time_elapsed":901225,"internal_node_id":"0.0-75.0"},{"type":"card_game","game_type":"straight_flush","losers":true,"see_result":false,"my_hand":"h_2_0_2_1","opponent_hand":"h_1_1_1_0","win":false,"tie":false,"bet":1,"earnings":-5,"expected_value":0.4375,"expected_earnings":2.1875,"bet_rt":6554,"block":3,"trial_type":"card_game","trial_index":76,"time_elapsed":908279,"internal_node_id":"0.0-76.0"},{"type":"card_game","game_type":"straight_flush","losers":true,"see_result":false,"my_hand":"h_0_0_0_0","opponent_hand":"h_3_1_2_0","win":true,"tie":false,"bet":2,"earnings":10,"expected_value":0.984375,"expected_earnings":9.84375,"bet_rt":1315,"block":3,"trial_type":"card_game","trial_index":77,"time_elapsed":910100,"internal_node_id":"0.0-77.0"},{"type":"card_game","game_type":"straight_flush","losers":true,"see_result":false,"my_hand":"h_3_1_2_0","opponent_hand":"h_3_1_0_1","win":false,"tie":false,"bet":0,"earnings":0,"expected_value":-0.59375,"expected_earnings":0,"bet_rt":8003,"block":3,"trial_type":"card_game","trial_index":78,"time_elapsed":918608,"internal_node_id":"0.0-78.0"},{"type":"card_game","game_type":"straight_flush","losers":true,"see_result":false,"my_hand":"h_2_1_2_1","opponent_hand":"h_0_1_1_1","win":true,"tie":false,"bet":2,"earnings":10,"expected_value":0.390625,"expected_earnings":3.90625,"bet_rt":6697,"block":3,"trial_type":"card_game","trial_index":79,"time_elapsed":925807,"internal_node_id":"0.0-79.0"},{"type":"card_game","game_type":"straight_flush","losers":true,"see_result":false,"my_hand":"h_2_1_1_0","opponent_hand":"h_1_0_1_1","win":false,"tie":false,"bet":0,"earnings":0,"expected_value":-0.46875,"expected_earnings":0,"bet_rt":3065,"block":3,"trial_type":"card_game","trial_index":80,"time_elapsed":929377,"internal_node_id":"0.0-80.0"},{"type":"card_game","game_type":"straight_flush","losers":true,"see_result":false,"my_hand":"h_2_0_3_0","opponent_hand":"h_3_0_1_0","win":false,"tie":false,"bet":0,"earnings":0,"expected_value":-0.90625,"expected_earnings":0,"bet_rt":1537,"block":3,"trial_type":"card_game","trial_index":81,"time_elapsed":931415,"internal_node_id":"0.0-81.0"},{"type":"card_game","game_type":"straight_flush","losers":true,"see_result":false,"my_hand":"h_1_1_0_1","opponent_hand":"h_2_1_3_1","win":true,"tie":false,"bet":0,"earnings":0,"expected_value":-0.71875,"expected_earnings":0,"bet_rt":2156,"block":3,"trial_type":"card_game","trial_index":82,"time_elapsed":934076,"internal_node_id":"0.0-82.0"},{"type":"card_game","game_type":"straight_flush","losers":true,"see_result":false,"my_hand":"h_3_1_1_0","opponent_hand":"h_2_0_1_1","win":true,"tie":false,"bet":1,"earnings":5,"expected_value":-0.03125,"expected_earnings":-0.15625,"bet_rt":8478,"block":3,"trial_type":"card_game","trial_index":83,"time_elapsed":943059,"internal_node_id":"0.0-83.0"},{"type":"card_game","game_type":"straight_flush","losers":true,"see_result":false,"my_hand":"h_1_1_2_1","opponent_hand":"h_3_1_3_1","win":false,"tie":false,"bet":0,"earnings":0,"expected_value":-0.84375,"expected_earnings":0,"bet_rt":1403,"block":3,"trial_type":"card_game","trial_index":84,"time_elapsed":944967,"internal_node_id":"0.0-84.0"},{"type":"card_game","game_type":"straight_flush","losers":true,"see_result":false,"my_hand":"h_0_0_3_1","opponent_hand":"h_1_1_2_1","win":true,"tie":false,"bet":1,"earnings":5,"expected_value":0.21875,"expected_earnings":1.09375,"bet_rt":2454,"block":3,"trial_type":"card_game","trial_index":85,"time_elapsed":947922,"internal_node_id":"0.0-85.0"},{"type":"card_game","game_type":"straight_flush","losers":true,"see_result":false,"my_hand":"h_1_1_3_1","opponent_hand":"h_2_0_2_1","win":false,"tie":false,"bet":1,"earnings":-5,"expected_value":-0.09375,"expected_earnings":-0.46875,"bet_rt":5676,"block":3,"trial_type":"card_game","trial_index":86,"time_elapsed":954099,"internal_node_id":"0.0-86.0"},{"type":"card_game","game_type":"straight_flush","losers":true,"see_result":false,"my_hand":"h_0_0_2_0","opponent_hand":"h_1_0_0_0","win":true,"tie":false,"bet":2,"earnings":10,"expected_value":0.71875,"expected_earnings":7.1875,"bet_rt":1823,"block":3,"trial_type":"card_game","trial_index":87,"time_elapsed":956424,"internal_node_id":"0.0-87.0"},{"type":"card_game","game_type":"straight_flush","losers":true,"see_result":false,"my_hand":"h_0_0_0_1","opponent_hand":"h_0_1_1_0","win":true,"tie":false,"bet":2,"earnings":10,"expected_value":0.9375,"expected_earnings":9.375,"bet_rt":2084,"block":3,"trial_type":"card_game","trial_index":88,"time_elapsed":959009,"internal_node_id":"0.0-88.0"},{"type":"card_game","game_type":"straight_flush","losers":true,"see_result":false,"my_hand":"h_1_0_0_1","opponent_hand":"h_2_1_2_0","win":false,"tie":false,"bet":1,"earnings":-5,"expected_value":-0.28125,"expected_earnings":-1.40625,"bet_rt":5421,"block":3,"trial_type":"card_game","trial_index":89,"time_elapsed":964935,"internal_node_id":"0.0-89.0"},{"type":"card_game","game_type":"straight_flush","losers":true,"see_result":false,"my_hand":"h_3_1_0_1","opponent_hand":"h_2_0_3_1","win":true,"tie":false,"bet":1,"earnings":5,"expected_value":0.15625,"expected_earnings":0.78125,"bet_rt":2609,"block":3,"trial_type":"card_game","trial_index":90,"time_elapsed":968048,"internal_node_id":"0.0-90.0"},{"type":"card_game","game_type":"straight_flush","losers":true,"see_result":false,"my_hand":"h_0_0_2_1","opponent_hand":"h_1_1_0_0","win":true,"tie":false,"bet":2,"earnings":10,"expected_value":0.59375,"expected_earnings":5.9375,"bet_rt":6260,"block":3,"trial_type":"card_game","trial_index":91,"time_elapsed":974811,"internal_node_id":"0.0-91.0"},{"type":"card_game","game_type":"straight_flush","losers":true,"see_result":false,"my_hand":"h_2_1_1_0","opponent_hand":"h_2_1_0_0","win":false,"tie":false,"bet":0,"earnings":0,"expected_value":-0.46875,"expected_earnings":0,"bet_rt":1928,"block":3,"trial_type":"card_game","trial_index":92,"time_elapsed":977246,"internal_node_id":"0.0-92.0"},{"rt":7361.879999982193,"stimulus":"<p>You earned a performance bonus of 60 cents on this set of trials.</p><p>You have earned a performance bonus of 160 cents over the experiment so far, plus $1.50 for making it to this phase.</p><p>Press any key to continue.</p>","key_press":32,"trial_type":"html-keyboard-response","trial_index":93,"time_elapsed":984609,"internal_node_id":"0.0-93.0"},{"rt":3803.6349999601953,"stimulus":"<p>Great, we just have a few questions to ask you and then you'll be finished!</p><p>Press any key to continue.</p>","key_press":32,"trial_type":"html-keyboard-response","trial_index":94,"time_elapsed":988413,"internal_node_id":"0.0-94.0"},{"rt":53318.0299999658,"responses":"{\"Q0\":4,\"Q1\":2,\"Q2\":3}","question_order":"[0,1,2]","response_trial_type":"debrief","trial_type":"survey-likert","trial_index":95,"time_elapsed":1041735,"internal_node_id":"0.0-95.0"},{"rt":11202.395000029355,"responses":"{\"Q0\":\"25-35\",\"Q1\":\"Bachelor's degree\",\"Q2\":\"Female\",\"Q3\":\"White\"}","question_order":"[0,1,2,3]","response_trial_type":"demographics","trial_type":"survey-multi-choice","trial_index":96,"time_elapsed":1052939,"internal_node_id":"0.0-96.0"},{"rt":2174.600000027567,"responses":"{\"Q0\":\"\"}","response_trial_type":"comments","trial_type":"survey-text","trial_index":97,"time_elapsed":1055117,"internal_node_id":"0.0-97.0"}]