[{"view_history":"[{\"page_index\":0,\"viewing_time\":1191783.2449999987},{\"page_index\":1,\"viewing_time\":19496.080000011716},{\"page_index\":2,\"viewing_time\":15911.979999975301},{\"page_index\":3,\"viewing_time\":18687.945000012405},{\"page_index\":4,\"viewing_time\":15959.869999991497},{\"page_index\":5,\"viewing_time\":15263.745000003837},{\"page_index\":6,\"viewing_time\":8864.15500001749}]","rt":1285968.0799999915,"trial_type":"instructions","trial_index":0,"time_elapsed":1285974,"internal_node_id":"0.0-0.0"},{"type":"hand_comparison","hand_win":"h_1_0_2_1","hand_lose":"h_3_0_0_0","explanation":"Adjacent cards beat non-adjacent.","hand_indices":[0,1],"hand_choice":0,"correct":true,"rt":9311,"trial_type":"hand_comparison","trial_index":1,"time_elapsed":1297293,"internal_node_id":"0.0-1.0"},{"type":"hand_comparison","hand_win":"h_0_0_1_0","hand_lose":"h_3_0_2_1","explanation":"Same-suit adjacent beats different suit.","hand_indices":[0,1],"hand_choice":0,"correct":true,"rt":4248,"trial_type":"hand_comparison","trial_index":2,"time_elapsed":1303544,"internal_node_id":"0.0-2.0"},{"type":"hand_comparison","hand_win":"h_3_0_0_1","hand_lose":"h_2_0_2_1","explanation":"Highest card breaks ties.","hand_indices":[1,0],"hand_choice":1,"correct":true,"rt":6901,"trial_type":"hand_comparison","trial_index":3,"time_elapsed":1312447,"internal_node_id":"0.0-3.0"},{"type":"hand_comparison","hand_win":"h_3_1_2_1","hand_lose":"h_2_0_3_0","explanation":"Black cards beat red cards if the numbers are tied.","hand_indices":[1,0],"hand_choice":1,"correct":true,"rt":3367,"trial_type":"hand_comparison","trial_index":4,"time_elapsed":1317815,"internal_node_id":"0.0-4.0"},{"rt":6045.92999999295,"stimulus":"<p><b>Congratulations, you passed the test, and will get to proceed to phase 2!</b></p><p>You have earned a $1.50 bonus, and will be awarded a performance bonus based on your bets in the next phase.</p><p>Press any key to continue.</p>","key_press":32,"trial_type":"html-keyboard-response","trial_index":5,"time_elapsed":1323863,"internal_node_id":"0.0-5.0"},{"rt":5005.514999997104,"stimulus":"<p>Now you get to play a few hands. After you bet, we'll show you your opponent's hand and how much you won (or lost), and at the end of these hands we'll tell you your total earnings.</p><p>Press any key to continue.</p>","key_press":32,"trial_type":"html-keyboard-response","trial_index":6,"time_elapsed":1328869,"internal_node_id":"0.0-6.0"},{"type":"card_game","game_type":"straight_flush","losers":false,"see_result":true,"my_hand":"h_3_1_3_0","opponent_hand":"h_2_0_3_1","win":false,"tie":false,"bet":0,"earnings":0,"expected_value":0.1875,"expected_earnings":0,"bet_rt":3313,"block":1,"trial_type":"card_game","trial_index":7,"time_elapsed":1333734,"internal_node_id":"0.0-7.0"},{"type":"card_game","game_type":"straight_flush","losers":false,"see_result":true,"my_hand":"h_2_0_2_0","opponent_hand":"h_2_1_2_0","win":false,"tie":false,"bet":0,"earnings":0,"expected_value":-0.484375,"expected_earnings":0,"bet_rt":4647,"block":1,"trial_type":"card_game","trial_index":8,"time_elapsed":1339928,"internal_node_id":"0.0-8.0"},{"type":"card_game","game_type":"straight_flush","losers":false,"see_result":true,"my_hand":"h_2_1_1_0","opponent_hand":"h_3_1_2_1","win":false,"tie":false,"bet":1,"earnings":-5,"expected_value":0.46875,"expected_earnings":2.34375,"bet_rt":4388,"block":1,"trial_type":"card_game","trial_index":9,"time_elapsed":1345893,"internal_node_id":"0.0-9.0"},{"type":"card_game","game_type":"straight_flush","losers":false,"see_result":true,"my_hand":"h_2_1_2_0","opponent_hand":"h_2_0_0_0","win":true,"tie":false,"bet":0,"earnings":0,"expected_value":-0.4375,"expected_earnings":0,"bet_rt":2160,"block":1,"trial_type":"card_game","trial_index":10,"time_elapsed":1349611,"internal_node_id":"0.0-10.0"},{"type":"card_game","game_type":"straight_flush","losers":false,"see_result":true,"my_hand":"h_2_1_1_1","opponent_hand":"h_1_1_3_1","win":true,"tie":false,"bet":2,"earnings":10,"expected_value":0.84375,"expected_earnings":8.4375,"bet_rt":3290,"block":1,"trial_type":"card_game","trial_index":11,"time_elapsed":1354454,"internal_node_id":"0.0-11.0"},{"type":"card_game","game_type":"straight_flush","losers":false,"see_result":true,"my_hand":"h_3_0_2_1","opponent_hand":"h_1_1_3_0","win":true,"tie":false,"bet":1,"earnings":5,"expected_value":0.53125,"expected_earnings":2.65625,"bet_rt":3646,"block":1,"trial_type":"card_game","trial_index":12,"time_elapsed":1359648,"internal_node_id":"0.0-12.0"},{"type":"card_game","game_type":"straight_flush","losers":false,"see_result":true,"my_hand":"h_1_0_3_1","opponent_hand":"h_3_0_1_1","win":true,"tie":false,"bet":0,"earnings":0,"expected_value":0.03125,"expected_earnings":0,"bet_rt":1789,"block":1,"trial_type":"card_game","trial_index":13,"time_elapsed":1362979,"internal_node_id":"0.0-13.0"},{"type":"card_game","game_type":"straight_flush","losers":false,"see_result":true,"my_hand":"h_1_0_0_0","opponent_hand":"h_2_0_3_0","win":false,"tie":false,"bet":2,"earnings":-10,"expected_value":0.65625,"expected_earnings":6.5625,"bet_rt":2707,"block":1,"trial_type":"card_game","trial_index":14,"time_elapsed":1367234,"internal_node_id":"0.0-14.0"},{"type":"card_game","game_type":"straight_flush","losers":false,"see_result":true,"my_hand":"h_2_0_1_1","opponent_hand":"h_3_1_1_0","win":true,"tie":false,"bet":1,"earnings":5,"expected_value":0.40625,"expected_earnings":2.03125,"bet_rt":1874,"block":1,"trial_type":"card_game","trial_index":15,"time_elapsed":1370640,"internal_node_id":"0.0-15.0"},{"type":"card_game","game_type":"straight_flush","losers":false,"see_result":true,"my_hand":"h_1_1_0_0","opponent_hand":"h_1_1_3_0","win":true,"tie":false,"bet":1,"earnings":5,"expected_value":0.34375,"expected_earnings":1.71875,"bet_rt":1565,"block":1,"trial_type":"card_game","trial_index":16,"time_elapsed":1373758,"internal_node_id":"0.0-16.0"},{"type":"card_game","game_type":"straight_flush","losers":false,"see_result":true,"my_hand":"h_3_0_1_1","opponent_hand":"h_1_1_0_1","win":false,"tie":false,"bet":0,"earnings":0,"expected_value":-0.03125,"expected_earnings":0,"bet_rt":2632,"block":1,"trial_type":"card_game","trial_index":17,"time_elapsed":1377929,"internal_node_id":"0.0-17.0"},{"type":"card_game","game_type":"straight_flush","losers":false,"see_result":true,"my_hand":"h_1_0_2_0","opponent_hand":"h_0_1_0_1","win":true,"tie":false,"bet":2,"earnings":10,"expected_value":0.78125,"expected_earnings":7.8125,"bet_rt":2380,"block":1,"trial_type":"card_game","trial_index":18,"time_elapsed":1381849,"internal_node_id":"0.0-18.0"},{"type":"card_game","game_type":"straight_flush","losers":false,"see_result":true,"my_hand":"h_1_1_1_1","opponent_hand":"h_2_0_3_1","win":false,"tie":false,"bet":2,"earnings":-10,"expected_value":-0.765625,"expected_earnings":-7.65625,"bet_rt":1516,"block":1,"trial_type":"card_game","trial_index":19,"time_elapsed":1384903,"internal_node_id":"0.0-19.0"},{"type":"card_game","game_type":"straight_flush","losers":false,"see_result":true,"my_hand":"h_1_1_3_1","opponent_hand":"h_1_0_2_0","win":false,"tie":false,"bet":0,"earnings":0,"expected_value":0.09375,"expected_earnings":0,"bet_rt":2165,"block":1,"trial_type":"card_game","trial_index":20,"time_elapsed":1388625,"internal_node_id":"0.0-20.0"},{"type":"card_game","game_type":"straight_flush","losers":false,"see_result":true,"my_hand":"h_2_1_0_0","opponent_hand":"h_1_1_3_1","win":false,"tie":false,"bet":0,"earnings":0,"expected_value":-0.59375,"expected_earnings":0,"bet_rt":1667,"block":1,"trial_type":"card_game","trial_index":21,"time_elapsed":1391829,"internal_node_id":"0.0-21.0"},{"type":"card_game","game_type":"straight_flush","losers":false,"see_result":true,"my_hand":"h_1_0_1_1","opponent_hand":"h_0_0_2_1","win":false,"tie":false,"bet":0,"earnings":0,"expected_value":-0.8125,"expected_earnings":0,"bet_rt":1681,"block":1,"trial_type":"card_game","trial_index":22,"time_elapsed":1395047,"internal_node_id":"0.0-22.0"},{"type":"card_game","game_type":"straight_flush","losers":false,"see_result":true,"my_hand":"h_0_1_3_0","opponent_hand":"h_2_1_3_1","win":false,"tie":false,"bet":0,"earnings":0,"expected_value":-0.28125,"expected_earnings":0,"bet_rt":1775,"block":1,"trial_type":"card_game","trial_index":23,"time_elapsed":1398390,"internal_node_id":"0.0-23.0"},{"type":"card_game","game_type":"straight_flush","losers":false,"see_result":true,"my_hand":"h_2_0_3_0","opponent_hand":"h_0_1_1_1","win":true,"tie":false,"bet":1,"earnings":5,"expected_value":0.90625,"expected_earnings":4.53125,"bet_rt":2056,"block":1,"trial_type":"card_game","trial_index":24,"time_elapsed":1401981,"internal_node_id":"0.0-24.0"},{"type":"card_game","game_type":"straight_flush","losers":false,"see_result":true,"my_hand":"h_1_1_3_0","opponent_hand":"h_3_0_1_0","win":true,"tie":false,"bet":0,"earnings":0,"expected_value":-0.03125,"expected_earnings":0,"bet_rt":1308,"block":1,"trial_type":"card_game","trial_index":25,"time_elapsed":1404836,"internal_node_id":"0.0-25.0"},{"type":"card_game","game_type":"straight_flush","losers":false,"see_result":true,"my_hand":"h_2_0_3_1","opponent_hand":"h_0_1_0_0","win":true,"tie":false,"bet":1,"earnings":5,"expected_value":0.59375,"expected_earnings":2.96875,"bet_rt":2073,"block":1,"trial_type":"card_game","trial_index":26,"time_elapsed":1408466,"internal_node_id":"0.0-26.0"},{"type":"card_game","game_type":"straight_flush","losers":false,"see_result":true,"my_hand":"h_0_0_0_1","opponent_hand":"h_1_1_2_0","win":false,"tie":false,"bet":0,"earnings":0,"expected_value":-0.9375,"expected_earnings":0,"bet_rt":1322,"block":1,"trial_type":"card_game","trial_index":27,"time_elapsed":1411333,"internal_node_id":"0.0-27.0"},{"type":"card_game","game_type":"straight_flush","losers":false,"see_result":true,"my_hand":"h_3_0_0_0","opponent_hand":"h_0_0_3_0","win":false,"tie":true,"bet":0,"earnings":0,"expected_value":-0.34375,"expected_earnings":0,"bet_rt":1631,"block":1,"trial_type":"card_game","trial_index":28,"time_elapsed":1414512,"internal_node_id":"0.0-28.0"},{"type":"card_game","game_type":"straight_flush","losers":false,"see_result":true,"my_hand":"h_0_0_0_1","opponent_hand":"h_1_0_3_1","win":false,"tie":false,"bet":0,"earnings":0,"expected_value":-0.9375,"expected_earnings":0,"bet_rt":1311,"block":1,"trial_type":"card_game","trial_index":29,"time_elapsed":1417372,"internal_node_id":"0.0-29.0"},{"type":"card_game","game_type":"straight_flush","losers":false,"see_result":true,"my_hand":"h_0_0_2_0","opponent_hand":"h_1_0_1_0","win":true,"tie":false,"bet":0,"earnings":0,"expected_value":-0.71875,"expected_earnings":0,"bet_rt":946,"block":1,"trial_type":"card_game","trial_index":30,"time_elapsed":1419860,"internal_node_id":"0.0-30.0"},{"type":"card_game","game_type":"straight_flush","losers":false,"see_result":true,"my_hand":"h_1_0_0_0","opponent_hand":"h_3_0_3_0","win":true,"tie":false,"bet":1,"earnings":5,"expected_value":0.65625,"expected_earnings":3.28125,"bet_rt":1362,"block":1,"trial_type":"card_game","trial_index":31,"time_elapsed":1422759,"internal_node_id":"0.0-31.0"},{"type":"card_game","game_type":"straight_flush","losers":false,"see_result":true,"my_hand":"h_0_0_3_1","opponent_hand":"h_3_1_0_1","win":false,"tie":false,"bet":0,"earnings":0,"expected_value":-0.21875,"expected_earnings":0,"bet_rt":1078,"block":1,"trial_type":"card_game","trial_index":32,"time_elapsed":1425381,"internal_node_id":"0.0-32.0"},{"type":"card_game","game_type":"straight_flush","losers":false,"see_result":true,"my_hand":"h_0_1_2_1","opponent_hand":"h_0_1_3_1","win":false,"tie":false,"bet":0,"earnings":0,"expected_value":-0.53125,"expected_earnings":0,"bet_rt":824,"block":1,"trial_type":"card_game","trial_index":33,"time_elapsed":1427754,"internal_node_id":"0.0-33.0"},{"type":"card_game","game_type":"straight_flush","losers":false,"see_result":true,"my_hand":"h_0_0_1_1","opponent_hand":"h_1_1_0_1","win":false,"tie":false,"bet":1,"earnings":-5,"expected_value":0.34375,"expected_earnings":1.71875,"bet_rt":1155,"block":1,"trial_type":"card_game","trial_index":34,"time_elapsed":1430469,"internal_node_id":"0.0-34.0"},{"type":"card_game","game_type":"straight_flush","losers":false,"see_result":true,"my_hand":"h_3_1_3_1","opponent_hand":"h_0_1_0_0","win":true,"tie":false,"bet":0,"earnings":0,"expected_value":0.234375,"expected_earnings":0,"bet_rt":1424,"block":1,"trial_type":"card_game","trial_index":35,"time_elapsed":1433441,"internal_node_id":"0.0-35.0"},{"type":"card_game","game_type":"straight_flush","losers":false,"see_result":true,"my_hand":"h_0_1_3_1","opponent_hand":"h_2_1_2_1","win":true,"tie":false,"bet":0,"earnings":0,"expected_value":-0.15625,"expected_earnings":0,"bet_rt":1181,"block":1,"trial_type":"card_game","trial_index":36,"time_elapsed":1436170,"internal_node_id":"0.0-36.0"},{"type":"card_game","game_type":"straight_flush","losers":false,"see_result":true,"my_hand":"h_2_0_0_1","opponent_hand":"h_2_1_0_0","win":false,"tie":false,"bet":0,"earnings":0,"expected_value":-0.65625,"expected_earnings":0,"bet_rt":1147,"block":1,"trial_type":"card_game","trial_index":37,"time_elapsed":1438853,"internal_node_id":"0.0-37.0"},{"type":"card_game","game_type":"straight_flush","losers":false,"see_result":true,"my_hand":"h_2_1_3_1","opponent_hand":"h_2_1_3_1","win":false,"tie":true,"bet":2,"earnings":0,"expected_value":0.96875,"expected_earnings":9.6875,"bet_rt":1624,"block":1,"trial_type":"card_game","trial_index":38,"time_elapsed":1442042,"internal_node_id":"0.0-38.0"},{"rt":3099.4899999932386,"stimulus":"<p>You earned a performance bonus of 20 cents on this set of trials, plus $1.50 for making it to this phase.</p><p>Press any key to continue.</p>","key_press":32,"trial_type":"html-keyboard-response","trial_index":39,"time_elapsed":1445144,"internal_node_id":"0.0-39.0"},{"rt":13046.715000004042,"stimulus":"<p>To test how well you understand the game, we'll now give you a series of hands where you won't see your results after you bet. You will just see your earnings at the end of the set of hands.</p><p>Press any key to continue.</p>","key_press":32,"trial_type":"html-keyboard-response","trial_index":40,"time_elapsed":1458191,"internal_node_id":"0.0-40.0"},{"type":"card_game","game_type":"straight_flush","losers":false,"see_result":false,"my_hand":"h_2_1_1_0","opponent_hand":"h_3_1_0_1","win":true,"tie":false,"bet":1,"earnings":5,"expected_value":0.46875,"expected_earnings":2.34375,"bet_rt":1926,"block":2,"trial_type":"card_game","trial_index":41,"time_elapsed":1460619,"internal_node_id":"0.0-41.0"},{"type":"card_game","game_type":"straight_flush","losers":false,"see_result":false,"my_hand":"h_3_0_1_0","opponent_hand":"h_1_0_0_1","win":false,"tie":false,"bet":0,"earnings":0,"expected_value":-0.09375,"expected_earnings":0,"bet_rt":3266,"block":2,"trial_type":"card_game","trial_index":42,"time_elapsed":1464387,"internal_node_id":"0.0-42.0"},{"type":"card_game","game_type":"straight_flush","losers":false,"see_result":false,"my_hand":"h_2_1_0_0","opponent_hand":"h_0_1_2_0","win":true,"tie":false,"bet":0,"earnings":0,"expected_value":-0.59375,"expected_earnings":0,"bet_rt":977,"block":2,"trial_type":"card_game","trial_index":43,"time_elapsed":1465866,"internal_node_id":"0.0-43.0"},{"type":"card_game","game_type":"straight_flush","losers":false,"see_result":false,"my_hand":"h_3_0_1_1","opponent_hand":"h_2_1_0_1","win":true,"tie":false,"bet":0,"earnings":0,"expected_value":-0.03125,"expected_earnings":0,"bet_rt":1227,"block":2,"trial_type":"card_game","trial_index":44,"time_elapsed":1467594,"internal_node_id":"0.0-44.0"},{"type":"card_game","game_type":"straight_flush","losers":false,"see_result":false,"my_hand":"h_2_1_2_0","opponent_hand":"h_3_0_3_1","win":false,"tie":false,"bet":0,"earnings":0,"expected_value":-0.4375,"expected_earnings":0,"bet_rt":1044,"block":2,"trial_type":"card_game","trial_index":45,"time_elapsed":1469139,"internal_node_id":"0.0-45.0"},{"type":"card_game","game_type":"straight_flush","losers":false,"see_result":false,"my_hand":"h_0_0_3_0","opponent_hand":"h_3_1_3_0","win":false,"tie":false,"bet":0,"earnings":0,"expected_value":-0.34375,"expected_earnings":0,"bet_rt":1150,"block":2,"trial_type":"card_game","trial_index":46,"time_elapsed":1470791,"internal_node_id":"0.0-46.0"},{"type":"card_game","game_type":"straight_flush","losers":false,"see_result":false,"my_hand":"h_0_0_1_0","opponent_hand":"h_2_1_1_0","win":true,"tie":false,"bet":1,"earnings":5,"expected_value":0.65625,"expected_earnings":3.28125,"bet_rt":1598,"block":2,"trial_type":"card_game","trial_index":47,"time_elapsed":1472891,"internal_node_id":"0.0-47.0"},{"type":"card_game","game_type":"straight_flush","losers":false,"see_result":false,"my_hand":"h_1_0_1_0","opponent_hand":"h_0_1_3_0","win":false,"tie":false,"bet":0,"earnings":0,"expected_value":-0.859375,"expected_earnings":0,"bet_rt":1250,"block":2,"trial_type":"card_game","trial_index":48,"time_elapsed":1474643,"internal_node_id":"0.0-48.0"},{"type":"card_game","game_type":"straight_flush","losers":false,"see_result":false,"my_hand":"h_2_1_1_0","opponent_hand":"h_1_0_3_1","win":true,"tie":false,"bet":1,"earnings":5,"expected_value":0.46875,"expected_earnings":2.34375,"bet_rt":2227,"block":2,"trial_type":"card_game","trial_index":49,"time_elapsed":1477372,"internal_node_id":"0.0-49.0"},{"type":"card_game","game_type":"straight_flush","losers":false,"see_result":false,"my_hand":"h_2_1_0_0","opponent_hand":"h_2_1_3_1","win":false,"tie":false,"bet":0,"earnings":0,"expected_value":-0.59375,"expected_earnings":0,"bet_rt":1481,"block":2,"trial_type":"card_game","trial_index":50,"time_elapsed":1479355,"internal_node_id":"0.0-50.0"},{"type":"card_game","game_type":"straight_flush","losers":false,"see_result":false,"my_hand":"h_2_1_1_1","opponent_hand":"h_1_0_1_1","win":true,"tie":false,"bet":2,"earnings":10,"expected_value":0.84375,"expected_earnings":8.4375,"bet_rt":1234,"block":2,"trial_type":"card_game","trial_index":51,"time_elapsed":1481092,"internal_node_id":"0.0-51.0"},{"type":"card_game","game_type":"straight_flush","losers":false,"see_result":false,"my_hand":"h_3_1_3_0","opponent_hand":"h_1_1_2_1","win":false,"tie":false,"bet":1,"earnings":-5,"expected_value":0.1875,"expected_earnings":0.9375,"bet_rt":2217,"block":2,"trial_type":"card_game","trial_index":52,"time_elapsed":1483810,"internal_node_id":"0.0-52.0"},{"type":"card_game","game_type":"straight_flush","losers":false,"see_result":false,"my_hand":"h_1_1_2_0","opponent_hand":"h_1_0_0_0","win":false,"tie":false,"bet":1,"earnings":-5,"expected_value":0.40625,"expected_earnings":2.03125,"bet_rt":2099,"block":2,"trial_type":"card_game","trial_index":53,"time_elapsed":1486412,"internal_node_id":"0.0-53.0"},{"type":"card_game","game_type":"straight_flush","losers":false,"see_result":false,"my_hand":"h_1_1_1_0","opponent_hand":"h_1_0_3_1","win":false,"tie":false,"bet":0,"earnings":0,"expected_value":-0.8125,"expected_earnings":0,"bet_rt":1242,"block":2,"trial_type":"card_game","trial_index":54,"time_elapsed":1488157,"internal_node_id":"0.0-54.0"},{"type":"card_game","game_type":"straight_flush","losers":false,"see_result":false,"my_hand":"h_3_1_3_1","opponent_hand":"h_1_1_3_0","win":true,"tie":false,"bet":0,"earnings":0,"expected_value":0.234375,"expected_earnings":0,"bet_rt":1377,"block":2,"trial_type":"card_game","trial_index":55,"time_elapsed":1490035,"internal_node_id":"0.0-55.0"},{"type":"card_game","game_type":"straight_flush","losers":false,"see_result":false,"my_hand":"h_2_1_1_1","opponent_hand":"h_2_1_3_1","win":false,"tie":false,"bet":2,"earnings":-10,"expected_value":0.84375,"expected_earnings":8.4375,"bet_rt":1945,"block":2,"trial_type":"card_game","trial_index":56,"time_elapsed":1492483,"internal_node_id":"0.0-56.0"},{"type":"card_game","game_type":"straight_flush","losers":false,"see_result":false,"my_hand":"h_3_0_0_0","opponent_hand":"h_3_1_1_1","win":false,"tie":false,"bet":0,"earnings":0,"expected_value":-0.34375,"expected_earnings":0,"bet_rt":2235,"block":2,"trial_type":"card_game","trial_index":57,"time_elapsed":1495221,"internal_node_id":"0.0-57.0"},{"type":"card_game","game_type":"straight_flush","losers":false,"see_result":false,"my_hand":"h_0_1_2_0","opponent_hand":"h_1_1_1_0","win":true,"tie":false,"bet":0,"earnings":0,"expected_value":-0.65625,"expected_earnings":0,"bet_rt":1071,"block":2,"trial_type":"card_game","trial_index":58,"time_elapsed":1496794,"internal_node_id":"0.0-58.0"},{"type":"card_game","game_type":"straight_flush","losers":false,"see_result":false,"my_hand":"h_0_0_1_0","opponent_hand":"h_2_1_1_1","win":false,"tie":false,"bet":1,"earnings":-5,"expected_value":0.65625,"expected_earnings":3.28125,"bet_rt":1227,"block":2,"trial_type":"card_game","trial_index":59,"time_elapsed":1498524,"internal_node_id":"0.0-59.0"},{"type":"card_game","game_type":"straight_flush","losers":false,"see_result":false,"my_hand":"h_0_1_0_1","opponent_hand":"h_0_1_0_1","win":false,"tie":true,"bet":0,"earnings":0,"expected_value":-0.890625,"expected_earnings":0,"bet_rt":1057,"block":2,"trial_type":"card_game","trial_index":60,"time_elapsed":1500083,"internal_node_id":"0.0-60.0"},{"type":"card_game","game_type":"straight_flush","losers":false,"see_result":false,"my_hand":"h_3_1_3_1","opponent_hand":"h_2_1_3_0","win":false,"tie":false,"bet":2,"earnings":-10,"expected_value":0.234375,"expected_earnings":2.34375,"bet_rt":1266,"block":2,"trial_type":"card_game","trial_index":61,"time_elapsed":1501851,"internal_node_id":"0.0-61.0"},{"type":"card_game","game_type":"straight_flush","losers":false,"see_result":false,"my_hand":"h_1_0_2_0","opponent_hand":"h_2_0_3_1","win":true,"tie":false,"bet":1,"earnings":5,"expected_value":0.78125,"expected_earnings":3.90625,"bet_rt":1441,"block":2,"trial_type":"card_game","trial_index":62,"time_elapsed":1503794,"internal_node_id":"0.0-62.0"},{"type":"card_game","game_type":"straight_flush","losers":false,"see_result":false,"my_hand":"h_3_1_0_0","opponent_hand":"h_3_0_1_1","win":false,"tie":false,"bet":0,"earnings":0,"expected_value":-0.21875,"expected_earnings":0,"bet_rt":1235,"block":2,"trial_type":"card_game","trial_index":63,"time_elapsed":1505531,"internal_node_id":"0.0-63.0"},{"type":"card_game","game_type":"straight_flush","losers":false,"see_result":false,"my_hand":"h_2_1_3_0","opponent_hand":"h_1_1_0_0","win":true,"tie":false,"bet":2,"earnings":10,"expected_value":0.53125,"expected_earnings":5.3125,"bet_rt":1594,"block":2,"trial_type":"card_game","trial_index":64,"time_elapsed":1507627,"internal_node_id":"0.0-64.0"},{"rt":5779.015000007348,"stimulus":"<p>You earned a performance bonus of 40 cents on this set of trials.</p><p>You have earned a performance bonus of 60 cents over the experiment so far, plus $1.50 for making it to this phase.</p><p>Press any key to continue.</p>","key_press":32,"trial_type":"html-keyboard-response","trial_index":65,"time_elapsed":1513408,"internal_node_id":"0.0-65.0"},{"rt":7245.034999999916,"stimulus":"<p><font color='red'><b>Now, we want you to try to lose the game! For the remainder of the experiment, if you bet and lose, you'll gain the amount you bet, and if you bet and win, you'll lose the amount you bet.</b></font></p><p>As before, you won't win or lose anything if you tie your opponent, or if you don't bet.</p><p>Press any key to continue.</p>","key_press":32,"trial_type":"html-keyboard-response","trial_index":66,"time_elapsed":1520653,"internal_node_id":"0.0-66.0"},{"rt":8982.649999990826,"responses":"{\"Q0\":\"Bet and my hand loses.\"}","question_order":"[0]","response_trial_type":"attention_check","trial_type":"survey-multi-choice","trial_index":67,"time_elapsed":1529638,"internal_node_id":"0.0-67.0"},{"rt":3566.965000005439,"stimulus":"<p>Great, now you get to play a few hands!</p><p>As before, you won't see your results after you bet. You will just see your earnings at the end of the set of hands.</p><p>Press any key to continue.</p>","key_press":32,"trial_type":"html-keyboard-response","trial_index":68,"time_elapsed":1533207,"internal_node_id":"0.0-68.0"},{"type":"card_game","game_type":"straight_flush","losers":true,"see_result":false,"my_hand":"h_3_0_3_1","opponent_hand":"h_1_1_2_0","win":true,"tie":false,"bet":2,"earnings":10,"expected_value":-0.1875,"expected_earnings":-1.875,"bet_rt":10583,"block":3,"trial_type":"card_game","trial_index":69,"time_elapsed":1544291,"internal_node_id":"0.0-69.0"},{"type":"card_game","game_type":"straight_flush","losers":true,"see_result":false,"my_hand":"h_3_1_0_1","opponent_hand":"h_2_0_0_1","win":false,"tie":false,"bet":2,"earnings":-10,"expected_value":0.15625,"expected_earnings":1.5625,"bet_rt":5492,"block":3,"trial_type":"card_game","trial_index":70,"time_elapsed":1550284,"internal_node_id":"0.0-70.0"},{"type":"card_game","game_type":"straight_flush","losers":true,"see_result":false,"my_hand":"h_1_0_1_1","opponent_hand":"h_0_1_2_1","win":true,"tie":false,"bet":1,"earnings":5,"expected_value":0.8125,"expected_earnings":4.0625,"bet_rt":5000,"block":3,"trial_type":"card_game","trial_index":71,"time_elapsed":1555787,"internal_node_id":"0.0-71.0"},{"type":"card_game","game_type":"straight_flush","losers":true,"see_result":false,"my_hand":"h_2_1_1_1","opponent_hand":"h_1_0_1_0","win":false,"tie":false,"bet":0,"earnings":0,"expected_value":-0.84375,"expected_earnings":0,"bet_rt":2450,"block":3,"trial_type":"card_game","trial_index":72,"time_elapsed":1558739,"internal_node_id":"0.0-72.0"},{"type":"card_game","game_type":"straight_flush","losers":true,"see_result":false,"my_hand":"h_2_0_2_1","opponent_hand":"h_1_0_0_1","win":true,"tie":false,"bet":2,"earnings":10,"expected_value":0.4375,"expected_earnings":4.375,"bet_rt":1939,"block":3,"trial_type":"card_game","trial_index":73,"time_elapsed":1561179,"internal_node_id":"0.0-73.0"},{"type":"card_game","game_type":"straight_flush","losers":true,"see_result":false,"my_hand":"h_2_0_1_1","opponent_hand":"h_0_0_1_0","win":true,"tie":false,"bet":0,"earnings":0,"expected_value":-0.40625,"expected_earnings":0,"bet_rt":4922,"block":3,"trial_type":"card_game","trial_index":74,"time_elapsed":1566604,"internal_node_id":"0.0-74.0"},{"type":"card_game","game_type":"straight_flush","losers":true,"see_result":false,"my_hand":"h_1_1_3_0","opponent_hand":"h_3_1_3_1","win":true,"tie":false,"bet":2,"earnings":10,"expected_value":0.03125,"expected_earnings":0.3125,"bet_rt":13434,"block":3,"trial_type":"card_game","trial_index":75,"time_elapsed":1580539,"internal_node_id":"0.0-75.0"},{"type":"card_game","game_type":"straight_flush","losers":true,"see_result":false,"my_hand":"h_1_1_3_1","opponent_hand":"h_1_0_0_0","win":true,"tie":false,"bet":2,"earnings":10,"expected_value":-0.09375,"expected_earnings":-0.9375,"bet_rt":1744,"block":3,"trial_type":"card_game","trial_index":76,"time_elapsed":1582784,"internal_node_id":"0.0-76.0"},{"type":"card_game","game_type":"straight_flush","losers":true,"see_result":false,"my_hand":"h_2_1_1_1","opponent_hand":"h_3_0_0_1","win":false,"tie":false,"bet":0,"earnings":0,"expected_value":-0.84375,"expected_earnings":0,"bet_rt":2029,"block":3,"trial_type":"card_game","trial_index":77,"time_elapsed":1585316,"internal_node_id":"0.0-77.0"},{"type":"card_game","game_type":"straight_flush","losers":true,"see_result":false,"my_hand":"h_1_0_0_0","opponent_hand":"h_1_1_0_0","win":false,"tie":false,"bet":1,"earnings":-5,"expected_value":-0.65625,"expected_earnings":-3.28125,"bet_rt":1441,"block":3,"trial_type":"card_game","trial_index":78,"time_elapsed":1587258,"internal_node_id":"0.0-78.0"},{"type":"card_game","game_type":"straight_flush","losers":true,"see_result":false,"my_hand":"h_0_0_1_1","opponent_hand":"h_2_1_3_0","win":true,"tie":false,"bet":1,"earnings":5,"expected_value":-0.34375,"expected_earnings":-1.71875,"bet_rt":1299,"block":3,"trial_type":"card_game","trial_index":79,"time_elapsed":1589059,"internal_node_id":"0.0-79.0"},{"type":"card_game","game_type":"straight_flush","losers":true,"see_result":false,"my_hand":"h_0_0_2_0","opponent_hand":"h_3_1_1_1","win":true,"tie":false,"bet":2,"earnings":10,"expected_value":0.71875,"expected_earnings":7.1875,"bet_rt":1602,"block":3,"trial_type":"card_game","trial_index":80,"time_elapsed":1591163,"internal_node_id":"0.0-80.0"},{"type":"card_game","game_type":"straight_flush","losers":true,"see_result":false,"my_hand":"h_0_0_2_0","opponent_hand":"h_2_1_2_0","win":true,"tie":false,"bet":2,"earnings":10,"expected_value":0.71875,"expected_earnings":7.1875,"bet_rt":817,"block":3,"trial_type":"card_game","trial_index":81,"time_elapsed":1592483,"internal_node_id":"0.0-81.0"},{"type":"card_game","game_type":"straight_flush","losers":true,"see_result":false,"my_hand":"h_3_1_0_1","opponent_hand":"h_3_1_2_1","win":true,"tie":false,"bet":2,"earnings":10,"expected_value":0.15625,"expected_earnings":1.5625,"bet_rt":1490,"block":3,"trial_type":"card_game","trial_index":82,"time_elapsed":1594476,"internal_node_id":"0.0-82.0"},{"type":"card_game","game_type":"straight_flush","losers":true,"see_result":false,"my_hand":"h_3_0_0_0","opponent_hand":"h_3_0_0_0","win":false,"tie":true,"bet":2,"earnings":0,"expected_value":0.34375,"expected_earnings":3.4375,"bet_rt":906,"block":3,"trial_type":"card_game","trial_index":83,"time_elapsed":1595884,"internal_node_id":"0.0-83.0"},{"type":"card_game","game_type":"straight_flush","losers":true,"see_result":false,"my_hand":"h_2_1_3_0","opponent_hand":"h_2_0_0_1","win":false,"tie":false,"bet":0,"earnings":0,"expected_value":-0.53125,"expected_earnings":0,"bet_rt":1514,"block":3,"trial_type":"card_game","trial_index":84,"time_elapsed":1597899,"internal_node_id":"0.0-84.0"},{"type":"card_game","game_type":"straight_flush","losers":true,"see_result":false,"my_hand":"h_3_0_2_1","opponent_hand":"h_3_1_1_0","win":false,"tie":false,"bet":0,"earnings":0,"expected_value":-0.53125,"expected_earnings":0,"bet_rt":1971,"block":3,"trial_type":"card_game","trial_index":85,"time_elapsed":1600371,"internal_node_id":"0.0-85.0"},{"type":"card_game","game_type":"straight_flush","losers":true,"see_result":false,"my_hand":"h_1_1_0_0","opponent_hand":"h_0_0_2_1","win":false,"tie":false,"bet":1,"earnings":-5,"expected_value":-0.34375,"expected_earnings":-1.71875,"bet_rt":1649,"block":3,"trial_type":"card_game","trial_index":86,"time_elapsed":1602523,"internal_node_id":"0.0-86.0"},{"type":"card_game","game_type":"straight_flush","losers":true,"see_result":false,"my_hand":"h_0_1_0_0","opponent_hand":"h_3_0_3_0","win":true,"tie":false,"bet":2,"earnings":10,"expected_value":0.9375,"expected_earnings":9.375,"bet_rt":1762,"block":3,"trial_type":"card_game","trial_index":87,"time_elapsed":1604786,"internal_node_id":"0.0-87.0"},{"type":"card_game","game_type":"straight_flush","losers":true,"see_result":false,"my_hand":"h_1_0_2_0","opponent_hand":"h_3_1_3_0","win":false,"tie":false,"bet":0,"earnings":0,"expected_value":-0.78125,"expected_earnings":0,"bet_rt":1763,"block":3,"trial_type":"card_game","trial_index":88,"time_elapsed":1607053,"internal_node_id":"0.0-88.0"},{"type":"card_game","game_type":"straight_flush","losers":true,"see_result":false,"my_hand":"h_2_1_2_1","opponent_hand":"h_1_0_3_0","win":true,"tie":false,"bet":0,"earnings":0,"expected_value":0.390625,"expected_earnings":0,"bet_rt":1201,"block":3,"trial_type":"card_game","trial_index":89,"time_elapsed":1608755,"internal_node_id":"0.0-89.0"},{"type":"card_game","game_type":"straight_flush","losers":true,"see_result":false,"my_hand":"h_0_0_2_1","opponent_hand":"h_3_1_1_0","win":true,"tie":false,"bet":2,"earnings":10,"expected_value":0.59375,"expected_earnings":5.9375,"bet_rt":1162,"block":3,"trial_type":"card_game","trial_index":90,"time_elapsed":1610419,"internal_node_id":"0.0-90.0"},{"type":"card_game","game_type":"straight_flush","losers":true,"see_result":false,"my_hand":"h_3_1_1_0","opponent_hand":"h_1_1_1_0","win":false,"tie":false,"bet":0,"earnings":0,"expected_value":-0.03125,"expected_earnings":0,"bet_rt":2450,"block":3,"trial_type":"card_game","trial_index":91,"time_elapsed":1613371,"internal_node_id":"0.0-91.0"},{"type":"card_game","game_type":"straight_flush","losers":true,"see_result":false,"my_hand":"h_0_0_0_0","opponent_hand":"h_3_1_3_1","win":true,"tie":false,"bet":2,"earnings":10,"expected_value":0.984375,"expected_earnings":9.84375,"bet_rt":2059,"block":3,"trial_type":"card_game","trial_index":92,"time_elapsed":1615931,"internal_node_id":"0.0-92.0"},{"rt":3263.604999985546,"stimulus":"<p>You earned a performance bonus of 50 cents on this set of trials.</p><p>You have earned a performance bonus of 110 cents over the experiment so far, plus $1.50 for making it to this phase.</p><p>Press any key to continue.</p>","key_press":32,"trial_type":"html-keyboard-response","trial_index":93,"time_elapsed":1619199,"internal_node_id":"0.0-93.0"},{"rt":1278.3849999832455,"stimulus":"<p>Great, we just have a few questions to ask you and then you'll be finished!</p><p>Press any key to continue.</p>","key_press":32,"trial_type":"html-keyboard-response","trial_index":94,"time_elapsed":1620478,"internal_node_id":"0.0-94.0"},{"rt":9589.949999994133,"responses":"{\"Q0\":4,\"Q1\":2,\"Q2\":3}","question_order":"[0,1,2]","response_trial_type":"debrief","trial_type":"survey-likert","trial_index":95,"time_elapsed":1630070,"internal_node_id":"0.0-95.0"},{"rt":10125.880000006873,"responses":"{\"Q0\":\"25-35\",\"Q1\":\"Some college\",\"Q2\":\"Male\",\"Q3\":\"White\"}","question_order":"[0,1,2,3]","response_trial_type":"demographics","trial_type":"survey-multi-choice","trial_index":96,"time_elapsed":1640198,"internal_node_id":"0.0-96.0"},{"rt":7344.585000013467,"responses":"{\"Q0\":\"I have nothing to comment.\"}","response_trial_type":"comments","trial_type":"survey-text","trial_index":97,"time_elapsed":1647550,"internal_node_id":"0.0-97.0"}]