[{"view_history":"[{\"page_index\":0,\"viewing_time\":12858.360000187531},{\"page_index\":1,\"viewing_time\":11521.31999982521},{\"page_index\":2,\"viewing_time\":15096.295000053942},{\"page_index\":3,\"viewing_time\":21497.8650000412},{\"page_index\":4,\"viewing_time\":26034.14999996312},{\"page_index\":5,\"viewing_time\":23455.79500007443},{\"page_index\":6,\"viewing_time\":12013.945000013337},{\"page_index\":5,\"viewing_time\":1202.314999885857},{\"page_index\":4,\"viewing_time\":9423.94999996759},{\"page_index\":5,\"viewing_time\":5063.780000200495},{\"page_index\":6,\"viewing_time\":1458.2899999804795}]","rt":139626.79000012577,"trial_type":"instructions","trial_index":0,"time_elapsed":139630,"internal_node_id":"0.0-0.0"},{"type":"hand_comparison","hand_win":"h_1_0_2_1","hand_lose":"h_3_0_0_0","explanation":"Adjacent cards beat non-adjacent.","hand_indices":[1,0],"hand_choice":1,"correct":true,"rt":7882,"trial_type":"hand_comparison","trial_index":1,"time_elapsed":149525,"internal_node_id":"0.0-1.0"},{"type":"hand_comparison","hand_win":"h_0_0_1_0","hand_lose":"h_3_0_2_1","explanation":"Same-suit adjacent beats different suit.","hand_indices":[1,0],"hand_choice":1,"correct":true,"rt":5606,"trial_type":"hand_comparison","trial_index":2,"time_elapsed":157136,"internal_node_id":"0.0-2.0"},{"type":"hand_comparison","hand_win":"h_3_0_0_1","hand_lose":"h_2_0_2_1","explanation":"Highest card breaks ties.","hand_indices":[1,0],"hand_choice":1,"correct":true,"rt":10883,"trial_type":"hand_comparison","trial_index":3,"time_elapsed":170022,"internal_node_id":"0.0-3.0"},{"type":"hand_comparison","hand_win":"h_3_1_2_1","hand_lose":"h_2_0_3_0","explanation":"Black cards beat red cards if the numbers are tied.","hand_indices":[1,0],"hand_choice":1,"correct":true,"rt":6316,"trial_type":"hand_comparison","trial_index":4,"time_elapsed":178341,"internal_node_id":"0.0-4.0"},{"rt":4897.559999953955,"stimulus":"<p><b>Congratulations, you passed the test, and will get to proceed to phase 2!</b></p><p>You have earned a $1.50 bonus, and will be awarded a performance bonus based on your bets in the next phase.</p><p>Press any key to continue.</p>","key_press":70,"trial_type":"html-keyboard-response","trial_index":5,"time_elapsed":183244,"internal_node_id":"0.0-5.0"},{"rt":6735.4749999940395,"stimulus":"<p>Now you get to play a few hands. After you bet, we'll show you your opponent's hand and how much you won (or lost), and at the end of these hands we'll tell you your total earnings.</p><p>Press any key to continue.</p>","key_press":71,"trial_type":"html-keyboard-response","trial_index":6,"time_elapsed":189981,"internal_node_id":"0.0-6.0"},{"type":"card_game","game_type":"straight_flush","losers":false,"see_result":true,"my_hand":"h_3_0_2_0","opponent_hand":"h_0_1_3_0","win":true,"tie":false,"bet":2,"earnings":10,"expected_value":0.90625,"expected_earnings":9.0625,"bet_rt":3406,"block":1,"trial_type":"card_game","trial_index":7,"time_elapsed":194949,"internal_node_id":"0.0-7.0"},{"type":"card_game","game_type":"straight_flush","losers":false,"see_result":true,"my_hand":"h_1_1_1_1","opponent_hand":"h_3_0_2_1","win":false,"tie":false,"bet":0,"earnings":0,"expected_value":-0.765625,"expected_earnings":0,"bet_rt":2813,"block":1,"trial_type":"card_game","trial_index":8,"time_elapsed":199384,"internal_node_id":"0.0-8.0"},{"type":"card_game","game_type":"straight_flush","losers":false,"see_result":true,"my_hand":"h_3_1_2_0","opponent_hand":"h_0_0_1_0","win":false,"tie":false,"bet":1,"earnings":-5,"expected_value":0.59375,"expected_earnings":2.96875,"bet_rt":3805,"block":1,"trial_type":"card_game","trial_index":9,"time_elapsed":204760,"internal_node_id":"0.0-9.0"},{"type":"card_game","game_type":"straight_flush","losers":false,"see_result":true,"my_hand":"h_3_1_1_1","opponent_hand":"h_1_1_2_0","win":false,"tie":false,"bet":0,"earnings":0,"expected_value":0.09375,"expected_earnings":0,"bet_rt":2405,"block":1,"trial_type":"card_game","trial_index":10,"time_elapsed":208745,"internal_node_id":"0.0-10.0"},{"type":"card_game","game_type":"straight_flush","losers":false,"see_result":true,"my_hand":"h_0_0_1_0","opponent_hand":"h_2_1_3_1","win":false,"tie":false,"bet":2,"earnings":-10,"expected_value":0.65625,"expected_earnings":6.5625,"bet_rt":2161,"block":1,"trial_type":"card_game","trial_index":11,"time_elapsed":212536,"internal_node_id":"0.0-11.0"},{"type":"card_game","game_type":"straight_flush","losers":false,"see_result":true,"my_hand":"h_2_0_0_0","opponent_hand":"h_3_1_1_1","win":false,"tie":false,"bet":0,"earnings":0,"expected_value":-0.71875,"expected_earnings":0,"bet_rt":2218,"block":1,"trial_type":"card_game","trial_index":12,"time_elapsed":216293,"internal_node_id":"0.0-12.0"},{"type":"card_game","game_type":"straight_flush","losers":false,"see_result":true,"my_hand":"h_3_1_0_1","opponent_hand":"h_1_0_2_1","win":false,"tie":false,"bet":0,"earnings":0,"expected_value":-0.15625,"expected_earnings":0,"bet_rt":2091,"block":1,"trial_type":"card_game","trial_index":13,"time_elapsed":219919,"internal_node_id":"0.0-13.0"},{"type":"card_game","game_type":"straight_flush","losers":false,"see_result":true,"my_hand":"h_2_0_2_0","opponent_hand":"h_3_1_0_1","win":false,"tie":false,"bet":0,"earnings":0,"expected_value":-0.484375,"expected_earnings":0,"bet_rt":1927,"block":1,"trial_type":"card_game","trial_index":14,"time_elapsed":223399,"internal_node_id":"0.0-14.0"},{"type":"card_game","game_type":"straight_flush","losers":false,"see_result":true,"my_hand":"h_0_0_2_1","opponent_hand":"h_3_0_2_1","win":false,"tie":false,"bet":0,"earnings":0,"expected_value":-0.59375,"expected_earnings":0,"bet_rt":1821,"block":1,"trial_type":"card_game","trial_index":15,"time_elapsed":226857,"internal_node_id":"0.0-15.0"},{"type":"card_game","game_type":"straight_flush","losers":false,"see_result":true,"my_hand":"h_2_1_1_1","opponent_hand":"h_1_0_1_1","win":true,"tie":false,"bet":2,"earnings":10,"expected_value":0.84375,"expected_earnings":8.4375,"bet_rt":1360,"block":1,"trial_type":"card_game","trial_index":16,"time_elapsed":229750,"internal_node_id":"0.0-16.0"},{"type":"card_game","game_type":"straight_flush","losers":false,"see_result":true,"my_hand":"h_3_1_3_0","opponent_hand":"h_2_0_0_0","win":true,"tie":false,"bet":0,"earnings":0,"expected_value":0.1875,"expected_earnings":0,"bet_rt":1939,"block":1,"trial_type":"card_game","trial_index":17,"time_elapsed":233240,"internal_node_id":"0.0-17.0"},{"type":"card_game","game_type":"straight_flush","losers":false,"see_result":true,"my_hand":"h_1_1_0_1","opponent_hand":"h_2_0_1_1","win":true,"tie":false,"bet":2,"earnings":10,"expected_value":0.71875,"expected_earnings":7.1875,"bet_rt":1855,"block":1,"trial_type":"card_game","trial_index":18,"time_elapsed":236650,"internal_node_id":"0.0-18.0"},{"type":"card_game","game_type":"straight_flush","losers":false,"see_result":true,"my_hand":"h_1_0_2_1","opponent_hand":"h_0_1_0_1","win":true,"tie":false,"bet":1,"earnings":5,"expected_value":0.46875,"expected_earnings":2.34375,"bet_rt":1906,"block":1,"trial_type":"card_game","trial_index":19,"time_elapsed":240088,"internal_node_id":"0.0-19.0"},{"type":"card_game","game_type":"straight_flush","losers":false,"see_result":true,"my_hand":"h_2_0_3_0","opponent_hand":"h_2_1_2_0","win":true,"tie":false,"bet":2,"earnings":10,"expected_value":0.90625,"expected_earnings":9.0625,"bet_rt":1536,"block":1,"trial_type":"card_game","trial_index":20,"time_elapsed":243192,"internal_node_id":"0.0-20.0"},{"type":"card_game","game_type":"straight_flush","losers":false,"see_result":true,"my_hand":"h_0_0_3_1","opponent_hand":"h_0_1_3_1","win":false,"tie":false,"bet":0,"earnings":0,"expected_value":-0.21875,"expected_earnings":0,"bet_rt":1615,"block":1,"trial_type":"card_game","trial_index":21,"time_elapsed":246355,"internal_node_id":"0.0-21.0"},{"type":"card_game","game_type":"straight_flush","losers":false,"see_result":true,"my_hand":"h_3_0_0_1","opponent_hand":"h_1_0_0_1","win":false,"tie":false,"bet":0,"earnings":0,"expected_value":-0.28125,"expected_earnings":0,"bet_rt":1434,"block":1,"trial_type":"card_game","trial_index":22,"time_elapsed":249336,"internal_node_id":"0.0-22.0"},{"type":"card_game","game_type":"straight_flush","losers":false,"see_result":true,"my_hand":"h_2_1_0_1","opponent_hand":"h_0_1_0_1","win":true,"tie":false,"bet":0,"earnings":0,"expected_value":-0.53125,"expected_earnings":0,"bet_rt":1698,"block":1,"trial_type":"card_game","trial_index":23,"time_elapsed":252586,"internal_node_id":"0.0-23.0"},{"type":"card_game","game_type":"straight_flush","losers":false,"see_result":true,"my_hand":"h_1_1_1_1","opponent_hand":"h_1_1_1_1","win":false,"tie":true,"bet":0,"earnings":0,"expected_value":-0.765625,"expected_earnings":0,"bet_rt":1774,"block":1,"trial_type":"card_game","trial_index":24,"time_elapsed":255925,"internal_node_id":"0.0-24.0"},{"type":"card_game","game_type":"straight_flush","losers":false,"see_result":true,"my_hand":"h_1_0_2_1","opponent_hand":"h_0_1_3_0","win":true,"tie":false,"bet":1,"earnings":5,"expected_value":0.46875,"expected_earnings":2.34375,"bet_rt":1672,"block":1,"trial_type":"card_game","trial_index":25,"time_elapsed":259155,"internal_node_id":"0.0-25.0"},{"type":"card_game","game_type":"straight_flush","losers":false,"see_result":true,"my_hand":"h_2_0_0_1","opponent_hand":"h_2_0_1_1","win":false,"tie":false,"bet":0,"earnings":0,"expected_value":-0.65625,"expected_earnings":0,"bet_rt":1389,"block":1,"trial_type":"card_game","trial_index":26,"time_elapsed":262081,"internal_node_id":"0.0-26.0"},{"type":"card_game","game_type":"straight_flush","losers":false,"see_result":true,"my_hand":"h_3_0_0_0","opponent_hand":"h_0_0_2_0","win":true,"tie":false,"bet":0,"earnings":0,"expected_value":-0.34375,"expected_earnings":0,"bet_rt":2031,"block":1,"trial_type":"card_game","trial_index":27,"time_elapsed":265660,"internal_node_id":"0.0-27.0"},{"type":"card_game","game_type":"straight_flush","losers":false,"see_result":true,"my_hand":"h_2_0_2_0","opponent_hand":"h_0_1_1_0","win":false,"tie":false,"bet":0,"earnings":0,"expected_value":-0.484375,"expected_earnings":0,"bet_rt":1585,"block":1,"trial_type":"card_game","trial_index":28,"time_elapsed":268818,"internal_node_id":"0.0-28.0"},{"type":"card_game","game_type":"straight_flush","losers":false,"see_result":true,"my_hand":"h_2_1_1_1","opponent_hand":"h_3_1_1_0","win":true,"tie":false,"bet":2,"earnings":10,"expected_value":0.84375,"expected_earnings":8.4375,"bet_rt":1506,"block":1,"trial_type":"card_game","trial_index":29,"time_elapsed":271871,"internal_node_id":"0.0-29.0"},{"type":"card_game","game_type":"straight_flush","losers":false,"see_result":true,"my_hand":"h_0_0_0_0","opponent_hand":"h_2_1_0_0","win":false,"tie":false,"bet":0,"earnings":0,"expected_value":-0.984375,"expected_earnings":0,"bet_rt":1424,"block":1,"trial_type":"card_game","trial_index":30,"time_elapsed":274881,"internal_node_id":"0.0-30.0"},{"type":"card_game","game_type":"straight_flush","losers":false,"see_result":true,"my_hand":"h_3_0_2_1","opponent_hand":"h_1_0_2_1","win":true,"tie":false,"bet":1,"earnings":5,"expected_value":0.53125,"expected_earnings":2.65625,"bet_rt":1677,"block":1,"trial_type":"card_game","trial_index":31,"time_elapsed":278128,"internal_node_id":"0.0-31.0"},{"type":"card_game","game_type":"straight_flush","losers":false,"see_result":true,"my_hand":"h_0_0_1_1","opponent_hand":"h_3_1_0_1","win":true,"tie":false,"bet":1,"earnings":5,"expected_value":0.34375,"expected_earnings":1.71875,"bet_rt":1460,"block":1,"trial_type":"card_game","trial_index":32,"time_elapsed":281135,"internal_node_id":"0.0-32.0"},{"type":"card_game","game_type":"straight_flush","losers":false,"see_result":true,"my_hand":"h_1_1_0_0","opponent_hand":"h_3_0_0_1","win":true,"tie":false,"bet":1,"earnings":5,"expected_value":0.34375,"expected_earnings":1.71875,"bet_rt":1283,"block":1,"trial_type":"card_game","trial_index":33,"time_elapsed":283999,"internal_node_id":"0.0-33.0"},{"type":"card_game","game_type":"straight_flush","losers":false,"see_result":true,"my_hand":"h_3_0_3_0","opponent_hand":"h_0_0_0_1","win":true,"tie":false,"bet":0,"earnings":0,"expected_value":0.140625,"expected_earnings":0,"bet_rt":1489,"block":1,"trial_type":"card_game","trial_index":34,"time_elapsed":287034,"internal_node_id":"0.0-34.0"},{"type":"card_game","game_type":"straight_flush","losers":false,"see_result":true,"my_hand":"h_1_1_3_0","opponent_hand":"h_2_0_0_0","win":true,"tie":false,"bet":0,"earnings":0,"expected_value":-0.03125,"expected_earnings":0,"bet_rt":1855,"block":1,"trial_type":"card_game","trial_index":35,"time_elapsed":290430,"internal_node_id":"0.0-35.0"},{"type":"card_game","game_type":"straight_flush","losers":false,"see_result":true,"my_hand":"h_1_1_3_0","opponent_hand":"h_2_1_2_0","win":true,"tie":false,"bet":0,"earnings":0,"expected_value":-0.03125,"expected_earnings":0,"bet_rt":2568,"block":1,"trial_type":"card_game","trial_index":36,"time_elapsed":294596,"internal_node_id":"0.0-36.0"},{"type":"card_game","game_type":"straight_flush","losers":false,"see_result":true,"my_hand":"h_0_0_0_0","opponent_hand":"h_0_1_2_1","win":false,"tie":false,"bet":0,"earnings":0,"expected_value":-0.984375,"expected_earnings":0,"bet_rt":1525,"block":1,"trial_type":"card_game","trial_index":37,"time_elapsed":297658,"internal_node_id":"0.0-37.0"},{"type":"card_game","game_type":"straight_flush","losers":false,"see_result":true,"my_hand":"h_1_0_3_1","opponent_hand":"h_2_1_1_1","win":false,"tie":false,"bet":0,"earnings":0,"expected_value":0.03125,"expected_earnings":0,"bet_rt":1413,"block":1,"trial_type":"card_game","trial_index":38,"time_elapsed":300647,"internal_node_id":"0.0-38.0"},{"rt":3932.490000035614,"stimulus":"<p>You earned a performance bonus of 60 cents on this set of trials, plus $1.50 for making it to this phase.</p><p>Press any key to continue.</p>","key_press":70,"trial_type":"html-keyboard-response","trial_index":39,"time_elapsed":304581,"internal_node_id":"0.0-39.0"},{"rt":9306.524999905378,"stimulus":"<p>To test how well you understand the game, we'll now give you a series of hands where you won't see your results after you bet. You will just see your earnings at the end of the set of hands.</p><p>Press any key to continue.</p>","key_press":70,"trial_type":"html-keyboard-response","trial_index":40,"time_elapsed":313889,"internal_node_id":"0.0-40.0"},{"type":"card_game","game_type":"straight_flush","losers":false,"see_result":false,"my_hand":"h_0_0_0_1","opponent_hand":"h_1_1_3_0","win":false,"tie":false,"bet":0,"earnings":0,"expected_value":-0.9375,"expected_earnings":0,"bet_rt":4079,"block":2,"trial_type":"card_game","trial_index":41,"time_elapsed":318470,"internal_node_id":"0.0-41.0"},{"type":"card_game","game_type":"straight_flush","losers":false,"see_result":false,"my_hand":"h_2_1_0_1","opponent_hand":"h_0_1_3_0","win":false,"tie":false,"bet":0,"earnings":0,"expected_value":-0.53125,"expected_earnings":0,"bet_rt":2069,"block":2,"trial_type":"card_game","trial_index":42,"time_elapsed":321040,"internal_node_id":"0.0-42.0"},{"type":"card_game","game_type":"straight_flush","losers":false,"see_result":false,"my_hand":"h_2_1_1_1","opponent_hand":"h_1_1_2_1","win":false,"tie":true,"bet":2,"earnings":0,"expected_value":0.84375,"expected_earnings":8.4375,"bet_rt":1551,"block":2,"trial_type":"card_game","trial_index":43,"time_elapsed":323092,"internal_node_id":"0.0-43.0"},{"type":"card_game","game_type":"straight_flush","losers":false,"see_result":false,"my_hand":"h_3_1_0_0","opponent_hand":"h_0_0_1_0","win":false,"tie":false,"bet":0,"earnings":0,"expected_value":-0.21875,"expected_earnings":0,"bet_rt":1735,"block":2,"trial_type":"card_game","trial_index":44,"time_elapsed":325329,"internal_node_id":"0.0-44.0"},{"type":"card_game","game_type":"straight_flush","losers":false,"see_result":false,"my_hand":"h_0_1_1_1","opponent_hand":"h_3_0_1_1","win":true,"tie":false,"bet":2,"earnings":10,"expected_value":0.71875,"expected_earnings":7.1875,"bet_rt":2103,"block":2,"trial_type":"card_game","trial_index":45,"time_elapsed":327932,"internal_node_id":"0.0-45.0"},{"type":"card_game","game_type":"straight_flush","losers":false,"see_result":false,"my_hand":"h_0_0_0_0","opponent_hand":"h_1_0_3_0","win":false,"tie":false,"bet":0,"earnings":0,"expected_value":-0.984375,"expected_earnings":0,"bet_rt":1359,"block":2,"trial_type":"card_game","trial_index":46,"time_elapsed":329793,"internal_node_id":"0.0-46.0"},{"type":"card_game","game_type":"straight_flush","losers":false,"see_result":false,"my_hand":"h_2_1_1_0","opponent_hand":"h_1_1_1_1","win":true,"tie":false,"bet":1,"earnings":5,"expected_value":0.46875,"expected_earnings":2.34375,"bet_rt":1427,"block":2,"trial_type":"card_game","trial_index":47,"time_elapsed":331721,"internal_node_id":"0.0-47.0"},{"type":"card_game","game_type":"straight_flush","losers":false,"see_result":false,"my_hand":"h_1_1_1_0","opponent_hand":"h_1_0_1_0","win":true,"tie":false,"bet":0,"earnings":0,"expected_value":-0.8125,"expected_earnings":0,"bet_rt":1463,"block":2,"trial_type":"card_game","trial_index":48,"time_elapsed":333687,"internal_node_id":"0.0-48.0"},{"type":"card_game","game_type":"straight_flush","losers":false,"see_result":false,"my_hand":"h_1_1_3_0","opponent_hand":"h_1_0_2_1","win":false,"tie":false,"bet":0,"earnings":0,"expected_value":-0.03125,"expected_earnings":0,"bet_rt":1476,"block":2,"trial_type":"card_game","trial_index":49,"time_elapsed":335664,"internal_node_id":"0.0-49.0"},{"type":"card_game","game_type":"straight_flush","losers":false,"see_result":false,"my_hand":"h_2_0_2_0","opponent_hand":"h_0_0_0_1","win":true,"tie":false,"bet":0,"earnings":0,"expected_value":-0.484375,"expected_earnings":0,"bet_rt":1501,"block":2,"trial_type":"card_game","trial_index":50,"time_elapsed":337667,"internal_node_id":"0.0-50.0"},{"type":"card_game","game_type":"straight_flush","losers":false,"see_result":false,"my_hand":"h_3_0_0_0","opponent_hand":"h_0_1_1_0","win":false,"tie":false,"bet":0,"earnings":0,"expected_value":-0.34375,"expected_earnings":0,"bet_rt":1571,"block":2,"trial_type":"card_game","trial_index":51,"time_elapsed":339740,"internal_node_id":"0.0-51.0"},{"type":"card_game","game_type":"straight_flush","losers":false,"see_result":false,"my_hand":"h_3_1_1_1","opponent_hand":"h_3_0_1_1","win":true,"tie":false,"bet":1,"earnings":5,"expected_value":0.09375,"expected_earnings":0.46875,"bet_rt":3610,"block":2,"trial_type":"card_game","trial_index":52,"time_elapsed":343851,"internal_node_id":"0.0-52.0"},{"type":"card_game","game_type":"straight_flush","losers":false,"see_result":false,"my_hand":"h_2_1_3_0","opponent_hand":"h_0_1_3_1","win":true,"tie":false,"bet":1,"earnings":5,"expected_value":0.53125,"expected_earnings":2.65625,"bet_rt":1614,"block":2,"trial_type":"card_game","trial_index":53,"time_elapsed":345967,"internal_node_id":"0.0-53.0"},{"type":"card_game","game_type":"straight_flush","losers":false,"see_result":false,"my_hand":"h_0_0_2_0","opponent_hand":"h_2_0_2_0","win":false,"tie":false,"bet":0,"earnings":0,"expected_value":-0.71875,"expected_earnings":0,"bet_rt":1413,"block":2,"trial_type":"card_game","trial_index":54,"time_elapsed":347881,"internal_node_id":"0.0-54.0"},{"type":"card_game","game_type":"straight_flush","losers":false,"see_result":false,"my_hand":"h_0_1_1_0","opponent_hand":"h_0_1_0_0","win":true,"tie":false,"bet":1,"earnings":5,"expected_value":0.28125,"expected_earnings":1.40625,"bet_rt":1383,"block":2,"trial_type":"card_game","trial_index":55,"time_elapsed":349765,"internal_node_id":"0.0-55.0"},{"type":"card_game","game_type":"straight_flush","losers":false,"see_result":false,"my_hand":"h_0_0_3_0","opponent_hand":"h_1_0_1_0","win":true,"tie":false,"bet":0,"earnings":0,"expected_value":-0.34375,"expected_earnings":0,"bet_rt":1637,"block":2,"trial_type":"card_game","trial_index":56,"time_elapsed":351904,"internal_node_id":"0.0-56.0"},{"type":"card_game","game_type":"straight_flush","losers":false,"see_result":false,"my_hand":"h_3_1_2_0","opponent_hand":"h_0_0_2_1","win":true,"tie":false,"bet":1,"earnings":5,"expected_value":0.59375,"expected_earnings":2.96875,"bet_rt":4492,"block":2,"trial_type":"card_game","trial_index":57,"time_elapsed":356897,"internal_node_id":"0.0-57.0"},{"type":"card_game","game_type":"straight_flush","losers":false,"see_result":false,"my_hand":"h_2_1_1_1","opponent_hand":"h_2_0_0_1","win":true,"tie":false,"bet":2,"earnings":10,"expected_value":0.84375,"expected_earnings":8.4375,"bet_rt":1404,"block":2,"trial_type":"card_game","trial_index":58,"time_elapsed":358802,"internal_node_id":"0.0-58.0"},{"type":"card_game","game_type":"straight_flush","losers":false,"see_result":false,"my_hand":"h_3_0_3_0","opponent_hand":"h_2_1_0_0","win":true,"tie":false,"bet":0,"earnings":0,"expected_value":0.140625,"expected_earnings":0,"bet_rt":1314,"block":2,"trial_type":"card_game","trial_index":59,"time_elapsed":360618,"internal_node_id":"0.0-59.0"},{"type":"card_game","game_type":"straight_flush","losers":false,"see_result":false,"my_hand":"h_3_0_2_0","opponent_hand":"h_1_0_3_1","win":true,"tie":false,"bet":1,"earnings":5,"expected_value":0.90625,"expected_earnings":4.53125,"bet_rt":1674,"block":2,"trial_type":"card_game","trial_index":60,"time_elapsed":362792,"internal_node_id":"0.0-60.0"},{"type":"card_game","game_type":"straight_flush","losers":false,"see_result":false,"my_hand":"h_2_1_1_0","opponent_hand":"h_2_0_2_0","win":true,"tie":false,"bet":1,"earnings":5,"expected_value":0.46875,"expected_earnings":2.34375,"bet_rt":1976,"block":2,"trial_type":"card_game","trial_index":61,"time_elapsed":365270,"internal_node_id":"0.0-61.0"},{"type":"card_game","game_type":"straight_flush","losers":false,"see_result":false,"my_hand":"h_3_0_3_1","opponent_hand":"h_0_1_3_1","win":true,"tie":false,"bet":0,"earnings":0,"expected_value":0.1875,"expected_earnings":0,"bet_rt":1583,"block":2,"trial_type":"card_game","trial_index":62,"time_elapsed":367355,"internal_node_id":"0.0-62.0"},{"type":"card_game","game_type":"straight_flush","losers":false,"see_result":false,"my_hand":"h_0_0_3_1","opponent_hand":"h_3_1_2_0","win":false,"tie":false,"bet":0,"earnings":0,"expected_value":-0.21875,"expected_earnings":0,"bet_rt":1444,"block":2,"trial_type":"card_game","trial_index":63,"time_elapsed":369301,"internal_node_id":"0.0-63.0"},{"type":"card_game","game_type":"straight_flush","losers":false,"see_result":false,"my_hand":"h_2_0_0_0","opponent_hand":"h_1_0_1_1","win":true,"tie":false,"bet":0,"earnings":0,"expected_value":-0.71875,"expected_earnings":0,"bet_rt":1525,"block":2,"trial_type":"card_game","trial_index":64,"time_elapsed":371328,"internal_node_id":"0.0-64.0"},{"rt":7241.720000049099,"stimulus":"<p>You earned a performance bonus of 40 cents on this set of trials.</p><p>You have earned a performance bonus of 100 cents over the experiment so far, plus $1.50 for making it to this phase.</p><p>Press any key to continue.</p>","key_press":70,"trial_type":"html-keyboard-response","trial_index":65,"time_elapsed":378586,"internal_node_id":"0.0-65.0"},{"rt":15063.64499987103,"stimulus":"<p><font color='red'><b>Now, we want you to try to lose the game! For the remainder of the experiment, if you bet and lose, you'll gain the amount you bet, and if you bet and win, you'll lose the amount you bet.</b></font></p><p>As before, you won't win or lose anything if you tie your opponent, or if you don't bet.</p><p>Press any key to continue.</p>","key_press":70,"trial_type":"html-keyboard-response","trial_index":66,"time_elapsed":393651,"internal_node_id":"0.0-66.0"},{"rt":5913.93500007689,"responses":"{\"Q0\":\"Bet and my hand loses.\"}","question_order":"[0]","response_trial_type":"attention_check","trial_type":"survey-multi-choice","trial_index":67,"time_elapsed":399568,"internal_node_id":"0.0-67.0"},{"rt":6112.235000124201,"stimulus":"<p>Great, now you get to play a few hands!</p><p>As before, you won't see your results after you bet. You will just see your earnings at the end of the set of hands.</p><p>Press any key to continue.</p>","key_press":74,"trial_type":"html-keyboard-response","trial_index":68,"time_elapsed":405681,"internal_node_id":"0.0-68.0"},{"type":"card_game","game_type":"straight_flush","losers":true,"see_result":false,"my_hand":"h_2_0_3_1","opponent_hand":"h_2_0_0_1","win":false,"tie":false,"bet":0,"earnings":0,"expected_value":-0.59375,"expected_earnings":0,"bet_rt":4267,"block":3,"trial_type":"card_game","trial_index":69,"time_elapsed":410450,"internal_node_id":"0.0-69.0"},{"type":"card_game","game_type":"straight_flush","losers":true,"see_result":false,"my_hand":"h_3_0_3_0","opponent_hand":"h_0_0_1_0","win":true,"tie":false,"bet":2,"earnings":10,"expected_value":-0.140625,"expected_earnings":-1.40625,"bet_rt":3706,"block":3,"trial_type":"card_game","trial_index":70,"time_elapsed":414658,"internal_node_id":"0.0-70.0"},{"type":"card_game","game_type":"straight_flush","losers":true,"see_result":false,"my_hand":"h_0_0_1_1","opponent_hand":"h_3_0_3_1","win":false,"tie":false,"bet":0,"earnings":0,"expected_value":-0.34375,"expected_earnings":0,"bet_rt":2087,"block":3,"trial_type":"card_game","trial_index":71,"time_elapsed":417246,"internal_node_id":"0.0-71.0"},{"type":"card_game","game_type":"straight_flush","losers":true,"see_result":false,"my_hand":"h_0_0_1_0","opponent_hand":"h_1_1_3_1","win":false,"tie":false,"bet":0,"earnings":0,"expected_value":-0.65625,"expected_earnings":0,"bet_rt":1701,"block":3,"trial_type":"card_game","trial_index":72,"time_elapsed":419449,"internal_node_id":"0.0-72.0"},{"type":"card_game","game_type":"straight_flush","losers":true,"see_result":false,"my_hand":"h_3_0_2_0","opponent_hand":"h_1_1_0_0","win":false,"tie":false,"bet":0,"earnings":0,"expected_value":-0.90625,"expected_earnings":0,"bet_rt":1654,"block":3,"trial_type":"card_game","trial_index":73,"time_elapsed":421604,"internal_node_id":"0.0-73.0"},{"type":"card_game","game_type":"straight_flush","losers":true,"see_result":false,"my_hand":"h_1_0_1_1","opponent_hand":"h_1_0_1_0","win":false,"tie":false,"bet":2,"earnings":-10,"expected_value":0.8125,"expected_earnings":8.125,"bet_rt":1607,"block":3,"trial_type":"card_game","trial_index":74,"time_elapsed":423713,"internal_node_id":"0.0-74.0"},{"type":"card_game","game_type":"straight_flush","losers":true,"see_result":false,"my_hand":"h_2_1_2_0","opponent_hand":"h_3_0_0_1","win":true,"tie":false,"bet":2,"earnings":10,"expected_value":0.4375,"expected_earnings":4.375,"bet_rt":1531,"block":3,"trial_type":"card_game","trial_index":75,"time_elapsed":425745,"internal_node_id":"0.0-75.0"},{"type":"card_game","game_type":"straight_flush","losers":true,"see_result":false,"my_hand":"h_2_0_0_0","opponent_hand":"h_1_1_0_1","win":true,"tie":false,"bet":2,"earnings":10,"expected_value":0.71875,"expected_earnings":7.1875,"bet_rt":2433,"block":3,"trial_type":"card_game","trial_index":76,"time_elapsed":428680,"internal_node_id":"0.0-76.0"},{"type":"card_game","game_type":"straight_flush","losers":true,"see_result":false,"my_hand":"h_3_0_2_0","opponent_hand":"h_1_0_1_1","win":false,"tie":false,"bet":0,"earnings":0,"expected_value":-0.90625,"expected_earnings":0,"bet_rt":2244,"block":3,"trial_type":"card_game","trial_index":77,"time_elapsed":431426,"internal_node_id":"0.0-77.0"},{"type":"card_game","game_type":"straight_flush","losers":true,"see_result":false,"my_hand":"h_1_0_2_0","opponent_hand":"h_3_1_1_0","win":false,"tie":false,"bet":0,"earnings":0,"expected_value":-0.78125,"expected_earnings":0,"bet_rt":1366,"block":3,"trial_type":"card_game","trial_index":78,"time_elapsed":433293,"internal_node_id":"0.0-78.0"},{"type":"card_game","game_type":"straight_flush","losers":true,"see_result":false,"my_hand":"h_2_1_1_0","opponent_hand":"h_2_1_1_0","win":false,"tie":true,"bet":0,"earnings":0,"expected_value":-0.46875,"expected_earnings":0,"bet_rt":1871,"block":3,"trial_type":"card_game","trial_index":79,"time_elapsed":435665,"internal_node_id":"0.0-79.0"},{"type":"card_game","game_type":"straight_flush","losers":true,"see_result":false,"my_hand":"h_3_0_1_1","opponent_hand":"h_1_0_2_1","win":true,"tie":false,"bet":1,"earnings":5,"expected_value":0.03125,"expected_earnings":0.15625,"bet_rt":2184,"block":3,"trial_type":"card_game","trial_index":80,"time_elapsed":438351,"internal_node_id":"0.0-80.0"},{"type":"card_game","game_type":"straight_flush","losers":true,"see_result":false,"my_hand":"h_3_1_1_1","opponent_hand":"h_1_0_3_1","win":false,"tie":false,"bet":0,"earnings":0,"expected_value":-0.09375,"expected_earnings":0,"bet_rt":5757,"block":3,"trial_type":"card_game","trial_index":81,"time_elapsed":444610,"internal_node_id":"0.0-81.0"},{"type":"card_game","game_type":"straight_flush","losers":true,"see_result":false,"my_hand":"h_0_1_3_1","opponent_hand":"h_2_1_2_1","win":false,"tie":false,"bet":1,"earnings":-5,"expected_value":0.15625,"expected_earnings":0.78125,"bet_rt":9933,"block":3,"trial_type":"card_game","trial_index":82,"time_elapsed":455045,"internal_node_id":"0.0-82.0"},{"type":"card_game","game_type":"straight_flush","losers":true,"see_result":false,"my_hand":"h_2_0_2_1","opponent_hand":"h_2_1_1_1","win":true,"tie":false,"bet":2,"earnings":10,"expected_value":0.4375,"expected_earnings":4.375,"bet_rt":2232,"block":3,"trial_type":"card_game","trial_index":83,"time_elapsed":457779,"internal_node_id":"0.0-83.0"},{"type":"card_game","game_type":"straight_flush","losers":true,"see_result":false,"my_hand":"h_0_1_2_0","opponent_hand":"h_2_1_2_0","win":true,"tie":false,"bet":2,"earnings":10,"expected_value":0.65625,"expected_earnings":6.5625,"bet_rt":2533,"block":3,"trial_type":"card_game","trial_index":84,"time_elapsed":460813,"internal_node_id":"0.0-84.0"},{"type":"card_game","game_type":"straight_flush","losers":true,"see_result":false,"my_hand":"h_3_1_3_1","opponent_hand":"h_0_0_1_1","win":true,"tie":false,"bet":0,"earnings":0,"expected_value":-0.234375,"expected_earnings":0,"bet_rt":3646,"block":3,"trial_type":"card_game","trial_index":85,"time_elapsed":464976,"internal_node_id":"0.0-85.0"},{"type":"card_game","game_type":"straight_flush","losers":true,"see_result":false,"my_hand":"h_0_0_2_1","opponent_hand":"h_1_0_2_1","win":true,"tie":false,"bet":2,"earnings":10,"expected_value":0.59375,"expected_earnings":5.9375,"bet_rt":1493,"block":3,"trial_type":"card_game","trial_index":86,"time_elapsed":466972,"internal_node_id":"0.0-86.0"},{"type":"card_game","game_type":"straight_flush","losers":true,"see_result":false,"my_hand":"h_3_0_0_1","opponent_hand":"h_3_0_2_0","win":true,"tie":false,"bet":2,"earnings":10,"expected_value":0.28125,"expected_earnings":2.8125,"bet_rt":1813,"block":3,"trial_type":"card_game","trial_index":87,"time_elapsed":469287,"internal_node_id":"0.0-87.0"},{"type":"card_game","game_type":"straight_flush","losers":true,"see_result":false,"my_hand":"h_1_1_0_0","opponent_hand":"h_0_0_1_0","win":true,"tie":false,"bet":0,"earnings":0,"expected_value":-0.34375,"expected_earnings":0,"bet_rt":1798,"block":3,"trial_type":"card_game","trial_index":88,"time_elapsed":471586,"internal_node_id":"0.0-88.0"},{"type":"card_game","game_type":"straight_flush","losers":true,"see_result":false,"my_hand":"h_3_0_1_0","opponent_hand":"h_3_0_3_1","win":true,"tie":false,"bet":1,"earnings":5,"expected_value":0.09375,"expected_earnings":0.46875,"bet_rt":3497,"block":3,"trial_type":"card_game","trial_index":89,"time_elapsed":475586,"internal_node_id":"0.0-89.0"},{"type":"card_game","game_type":"straight_flush","losers":true,"see_result":false,"my_hand":"h_0_0_1_0","opponent_hand":"h_2_1_3_0","win":false,"tie":false,"bet":0,"earnings":0,"expected_value":-0.65625,"expected_earnings":0,"bet_rt":1446,"block":3,"trial_type":"card_game","trial_index":90,"time_elapsed":477533,"internal_node_id":"0.0-90.0"},{"type":"card_game","game_type":"straight_flush","losers":true,"see_result":false,"my_hand":"h_0_1_0_1","opponent_hand":"h_1_0_3_1","win":true,"tie":false,"bet":2,"earnings":10,"expected_value":0.890625,"expected_earnings":8.90625,"bet_rt":3697,"block":3,"trial_type":"card_game","trial_index":91,"time_elapsed":481732,"internal_node_id":"0.0-91.0"},{"type":"card_game","game_type":"straight_flush","losers":true,"see_result":false,"my_hand":"h_0_0_0_1","opponent_hand":"h_3_0_0_0","win":true,"tie":false,"bet":2,"earnings":10,"expected_value":0.9375,"expected_earnings":9.375,"bet_rt":1214,"block":3,"trial_type":"card_game","trial_index":92,"time_elapsed":483447,"internal_node_id":"0.0-92.0"},{"rt":4706.224999856204,"stimulus":"<p>You earned a performance bonus of 60 cents on this set of trials.</p><p>You have earned a performance bonus of 160 cents over the experiment so far, plus $1.50 for making it to this phase.</p><p>Press any key to continue.</p>","key_press":70,"trial_type":"html-keyboard-response","trial_index":93,"time_elapsed":488157,"internal_node_id":"0.0-93.0"},{"rt":2638.054999988526,"stimulus":"<p>Great, we just have a few questions to ask you and then you'll be finished!</p><p>Press any key to continue.</p>","key_press":70,"trial_type":"html-keyboard-response","trial_index":94,"time_elapsed":490796,"internal_node_id":"0.0-94.0"},{"rt":13117.645000107586,"responses":"{\"Q0\":4,\"Q1\":3,\"Q2\":3}","question_order":"[0,1,2]","response_trial_type":"debrief","trial_type":"survey-likert","trial_index":95,"time_elapsed":503916,"internal_node_id":"0.0-95.0"},{"rt":15625.669999979436,"responses":"{\"Q0\":\"45-55\",\"Q1\":\"Bachelor's degree\",\"Q2\":\"Female\",\"Q3\":\"White\"}","question_order":"[0,1,2,3]","response_trial_type":"demographics","trial_type":"survey-multi-choice","trial_index":96,"time_elapsed":519544,"internal_node_id":"0.0-96.0"},{"rt":12934.864999959245,"responses":"{\"Q0\":\"I really enjoyed this HIT!\"}","response_trial_type":"comments","trial_type":"survey-text","trial_index":97,"time_elapsed":532487,"internal_node_id":"0.0-97.0"}]