[{"view_history":"[{\"page_index\":0,\"viewing_time\":997.5049999775365},{\"page_index\":1,\"viewing_time\":1534.3449999927543},{\"page_index\":2,\"viewing_time\":808.9750000508502},{\"page_index\":3,\"viewing_time\":1337.8950000042096},{\"page_index\":4,\"viewing_time\":1099.549999984447},{\"page_index\":5,\"viewing_time\":824.3449999717996},{\"page_index\":6,\"viewing_time\":884.4000000390224}]","rt":7488.015000009909,"trial_type":"instructions","trial_index":0,"time_elapsed":7489,"internal_node_id":"0.0-0.0"},{"type":"hand_comparison","hand_win":"h_1_0_2_1","hand_lose":"h_3_0_0_0","explanation":"Adjacent cards beat non-adjacent.","hand_indices":[0,1],"hand_choice":0,"correct":true,"rt":1864,"trial_type":"hand_comparison","trial_index":1,"time_elapsed":11355,"internal_node_id":"0.0-1.0"},{"type":"hand_comparison","hand_win":"h_0_0_1_0","hand_lose":"h_3_0_2_1","explanation":"Same-suit adjacent beats different suit.","hand_indices":[0,1],"hand_choice":0,"correct":true,"rt":1866,"trial_type":"hand_comparison","trial_index":2,"time_elapsed":15223,"internal_node_id":"0.0-2.0"},{"type":"hand_comparison","hand_win":"h_3_0_0_1","hand_lose":"h_2_0_2_1","explanation":"Highest card breaks ties.","hand_indices":[0,1],"hand_choice":0,"correct":true,"rt":1254,"trial_type":"hand_comparison","trial_index":3,"time_elapsed":18480,"internal_node_id":"0.0-3.0"},{"type":"hand_comparison","hand_win":"h_3_1_2_1","hand_lose":"h_2_0_3_0","explanation":"Black cards beat red cards if the numbers are tied.","hand_indices":[0,1],"hand_choice":0,"correct":true,"rt":1970,"trial_type":"hand_comparison","trial_index":4,"time_elapsed":22453,"internal_node_id":"0.0-4.0"},{"rt":4238.754999998491,"stimulus":"<p><b>Congratulations, you passed the test, and will get to proceed to phase 2!</b></p><p>You have earned a $1.50 bonus, and will be awarded a performance bonus based on your bets in the next phase.</p><p>Press any key to continue.</p>","key_press":70,"trial_type":"html-keyboard-response","trial_index":5,"time_elapsed":26697,"internal_node_id":"0.0-5.0"},{"rt":4611.455000005662,"stimulus":"<p>Now you get to play a few hands. After you bet, we'll show you your opponent's hand and how much you won (or lost), and at the end of these hands we'll tell you your total earnings.</p><p>Press any key to continue.</p>","key_press":70,"trial_type":"html-keyboard-response","trial_index":6,"time_elapsed":31310,"internal_node_id":"0.0-6.0"},{"type":"card_game","game_type":"straight_flush","losers":false,"see_result":true,"my_hand":"h_0_0_1_0","opponent_hand":"h_1_1_0_1","win":false,"tie":false,"bet":1,"earnings":-5,"expected_value":0.65625,"expected_earnings":3.28125,"bet_rt":4853,"block":1,"trial_type":"card_game","trial_index":7,"time_elapsed":37796,"internal_node_id":"0.0-7.0"},{"type":"card_game","game_type":"straight_flush","losers":false,"see_result":true,"my_hand":"h_3_1_3_1","opponent_hand":"h_1_0_1_0","win":true,"tie":false,"bet":0,"earnings":0,"expected_value":0.234375,"expected_earnings":0,"bet_rt":1600,"block":1,"trial_type":"card_game","trial_index":8,"time_elapsed":41060,"internal_node_id":"0.0-8.0"},{"type":"card_game","game_type":"straight_flush","losers":false,"see_result":true,"my_hand":"h_3_0_3_1","opponent_hand":"h_2_1_0_1","win":true,"tie":false,"bet":0,"earnings":0,"expected_value":0.1875,"expected_earnings":0,"bet_rt":1853,"block":1,"trial_type":"card_game","trial_index":9,"time_elapsed":44526,"internal_node_id":"0.0-9.0"},{"type":"card_game","game_type":"straight_flush","losers":false,"see_result":true,"my_hand":"h_1_0_3_0","opponent_hand":"h_2_0_0_0","win":true,"tie":false,"bet":0,"earnings":0,"expected_value":-0.09375,"expected_earnings":0,"bet_rt":2182,"block":1,"trial_type":"card_game","trial_index":10,"time_elapsed":48299,"internal_node_id":"0.0-10.0"},{"type":"card_game","game_type":"straight_flush","losers":false,"see_result":true,"my_hand":"h_1_0_1_0","opponent_hand":"h_3_1_0_0","win":false,"tie":false,"bet":0,"earnings":0,"expected_value":-0.859375,"expected_earnings":0,"bet_rt":1359,"block":1,"trial_type":"card_game","trial_index":11,"time_elapsed":51279,"internal_node_id":"0.0-11.0"},{"type":"card_game","game_type":"straight_flush","losers":false,"see_result":true,"my_hand":"h_0_0_0_1","opponent_hand":"h_0_0_1_0","win":false,"tie":false,"bet":0,"earnings":0,"expected_value":-0.9375,"expected_earnings":0,"bet_rt":1438,"block":1,"trial_type":"card_game","trial_index":12,"time_elapsed":54354,"internal_node_id":"0.0-12.0"},{"type":"card_game","game_type":"straight_flush","losers":false,"see_result":true,"my_hand":"h_3_1_2_1","opponent_hand":"h_1_0_3_1","win":true,"tie":false,"bet":2,"earnings":10,"expected_value":0.96875,"expected_earnings":9.6875,"bet_rt":1848,"block":1,"trial_type":"card_game","trial_index":13,"time_elapsed":57834,"internal_node_id":"0.0-13.0"},{"type":"card_game","game_type":"straight_flush","losers":false,"see_result":true,"my_hand":"h_2_0_2_1","opponent_hand":"h_2_0_3_0","win":false,"tie":false,"bet":0,"earnings":0,"expected_value":-0.4375,"expected_earnings":0,"bet_rt":1545,"block":1,"trial_type":"card_game","trial_index":14,"time_elapsed":60967,"internal_node_id":"0.0-14.0"},{"type":"card_game","game_type":"straight_flush","losers":false,"see_result":true,"my_hand":"h_3_0_0_0","opponent_hand":"h_1_1_3_0","win":false,"tie":false,"bet":0,"earnings":0,"expected_value":-0.34375,"expected_earnings":0,"bet_rt":2390,"block":1,"trial_type":"card_game","trial_index":15,"time_elapsed":64957,"internal_node_id":"0.0-15.0"},{"type":"card_game","game_type":"straight_flush","losers":false,"see_result":true,"my_hand":"h_3_0_0_0","opponent_hand":"h_3_0_1_0","win":false,"tie":false,"bet":0,"earnings":0,"expected_value":-0.34375,"expected_earnings":0,"bet_rt":1541,"block":1,"trial_type":"card_game","trial_index":16,"time_elapsed":68080,"internal_node_id":"0.0-16.0"},{"type":"card_game","game_type":"straight_flush","losers":false,"see_result":true,"my_hand":"h_2_0_0_0","opponent_hand":"h_0_1_1_1","win":false,"tie":false,"bet":0,"earnings":0,"expected_value":-0.71875,"expected_earnings":0,"bet_rt":1607,"block":1,"trial_type":"card_game","trial_index":17,"time_elapsed":71271,"internal_node_id":"0.0-17.0"},{"type":"card_game","game_type":"straight_flush","losers":false,"see_result":true,"my_hand":"h_0_0_3_1","opponent_hand":"h_1_1_2_0","win":false,"tie":false,"bet":0,"earnings":0,"expected_value":-0.21875,"expected_earnings":0,"bet_rt":1250,"block":1,"trial_type":"card_game","trial_index":18,"time_elapsed":74101,"internal_node_id":"0.0-18.0"},{"type":"card_game","game_type":"straight_flush","losers":false,"see_result":true,"my_hand":"h_2_0_2_0","opponent_hand":"h_3_1_2_1","win":false,"tie":false,"bet":0,"earnings":0,"expected_value":-0.484375,"expected_earnings":0,"bet_rt":842,"block":1,"trial_type":"card_game","trial_index":19,"time_elapsed":76527,"internal_node_id":"0.0-19.0"},{"type":"card_game","game_type":"straight_flush","losers":false,"see_result":true,"my_hand":"h_2_1_1_1","opponent_hand":"h_3_0_2_1","win":true,"tie":false,"bet":2,"earnings":10,"expected_value":0.84375,"expected_earnings":8.4375,"bet_rt":1361,"block":1,"trial_type":"card_game","trial_index":20,"time_elapsed":79487,"internal_node_id":"0.0-20.0"},{"type":"card_game","game_type":"straight_flush","losers":false,"see_result":true,"my_hand":"h_3_1_2_0","opponent_hand":"h_2_1_0_1","win":true,"tie":false,"bet":2,"earnings":10,"expected_value":0.59375,"expected_earnings":5.9375,"bet_rt":1124,"block":1,"trial_type":"card_game","trial_index":21,"time_elapsed":82186,"internal_node_id":"0.0-21.0"},{"type":"card_game","game_type":"straight_flush","losers":false,"see_result":true,"my_hand":"h_0_1_2_0","opponent_hand":"h_1_1_3_0","win":false,"tie":false,"bet":0,"earnings":0,"expected_value":-0.65625,"expected_earnings":0,"bet_rt":1117,"block":1,"trial_type":"card_game","trial_index":22,"time_elapsed":84886,"internal_node_id":"0.0-22.0"},{"type":"card_game","game_type":"straight_flush","losers":false,"see_result":true,"my_hand":"h_0_0_1_1","opponent_hand":"h_0_0_3_1","win":true,"tie":false,"bet":0,"earnings":0,"expected_value":0.34375,"expected_earnings":0,"bet_rt":2081,"block":1,"trial_type":"card_game","trial_index":23,"time_elapsed":88527,"internal_node_id":"0.0-23.0"},{"type":"card_game","game_type":"straight_flush","losers":false,"see_result":true,"my_hand":"h_1_1_2_0","opponent_hand":"h_3_1_3_1","win":true,"tie":false,"bet":1,"earnings":5,"expected_value":0.40625,"expected_earnings":2.03125,"bet_rt":1761,"block":1,"trial_type":"card_game","trial_index":24,"time_elapsed":91857,"internal_node_id":"0.0-24.0"},{"type":"card_game","game_type":"straight_flush","losers":false,"see_result":true,"my_hand":"h_3_0_1_0","opponent_hand":"h_2_0_1_0","win":false,"tie":false,"bet":0,"earnings":0,"expected_value":-0.09375,"expected_earnings":0,"bet_rt":1158,"block":1,"trial_type":"card_game","trial_index":25,"time_elapsed":94647,"internal_node_id":"0.0-25.0"},{"type":"card_game","game_type":"straight_flush","losers":false,"see_result":true,"my_hand":"h_3_1_1_0","opponent_hand":"h_0_0_1_0","win":false,"tie":false,"bet":0,"earnings":0,"expected_value":0.03125,"expected_earnings":0,"bet_rt":1317,"block":1,"trial_type":"card_game","trial_index":26,"time_elapsed":97532,"internal_node_id":"0.0-26.0"},{"type":"card_game","game_type":"straight_flush","losers":false,"see_result":true,"my_hand":"h_0_0_0_0","opponent_hand":"h_1_1_3_1","win":false,"tie":false,"bet":0,"earnings":0,"expected_value":-0.984375,"expected_earnings":0,"bet_rt":873,"block":1,"trial_type":"card_game","trial_index":27,"time_elapsed":99956,"internal_node_id":"0.0-27.0"},{"type":"card_game","game_type":"straight_flush","losers":false,"see_result":true,"my_hand":"h_2_0_3_1","opponent_hand":"h_0_0_0_1","win":true,"tie":false,"bet":2,"earnings":10,"expected_value":0.59375,"expected_earnings":5.9375,"bet_rt":1097,"block":1,"trial_type":"card_game","trial_index":28,"time_elapsed":102635,"internal_node_id":"0.0-28.0"},{"type":"card_game","game_type":"straight_flush","losers":false,"see_result":true,"my_hand":"h_0_0_2_1","opponent_hand":"h_3_0_3_1","win":false,"tie":false,"bet":0,"earnings":0,"expected_value":-0.59375,"expected_earnings":0,"bet_rt":1745,"block":1,"trial_type":"card_game","trial_index":29,"time_elapsed":105991,"internal_node_id":"0.0-29.0"},{"type":"card_game","game_type":"straight_flush","losers":false,"see_result":true,"my_hand":"h_3_1_1_0","opponent_hand":"h_1_1_2_1","win":false,"tie":false,"bet":0,"earnings":0,"expected_value":0.03125,"expected_earnings":0,"bet_rt":1222,"block":1,"trial_type":"card_game","trial_index":30,"time_elapsed":108827,"internal_node_id":"0.0-30.0"},{"type":"card_game","game_type":"straight_flush","losers":false,"see_result":true,"my_hand":"h_3_1_0_0","opponent_hand":"h_3_0_1_0","win":false,"tie":false,"bet":0,"earnings":0,"expected_value":-0.21875,"expected_earnings":0,"bet_rt":998,"block":1,"trial_type":"card_game","trial_index":31,"time_elapsed":111446,"internal_node_id":"0.0-31.0"},{"type":"card_game","game_type":"straight_flush","losers":false,"see_result":true,"my_hand":"h_0_0_1_0","opponent_hand":"h_1_1_0_0","win":true,"tie":false,"bet":1,"earnings":5,"expected_value":0.65625,"expected_earnings":3.28125,"bet_rt":1243,"block":1,"trial_type":"card_game","trial_index":32,"time_elapsed":114250,"internal_node_id":"0.0-32.0"},{"type":"card_game","game_type":"straight_flush","losers":false,"see_result":true,"my_hand":"h_1_0_2_0","opponent_hand":"h_2_1_3_0","win":true,"tie":false,"bet":2,"earnings":10,"expected_value":0.78125,"expected_earnings":7.8125,"bet_rt":2051,"block":1,"trial_type":"card_game","trial_index":33,"time_elapsed":117885,"internal_node_id":"0.0-33.0"},{"type":"card_game","game_type":"straight_flush","losers":false,"see_result":true,"my_hand":"h_2_0_1_1","opponent_hand":"h_1_1_0_0","win":true,"tie":false,"bet":1,"earnings":5,"expected_value":0.40625,"expected_earnings":2.03125,"bet_rt":1291,"block":1,"trial_type":"card_game","trial_index":34,"time_elapsed":120789,"internal_node_id":"0.0-34.0"},{"type":"card_game","game_type":"straight_flush","losers":false,"see_result":true,"my_hand":"h_1_1_1_0","opponent_hand":"h_1_1_1_1","win":false,"tie":false,"bet":0,"earnings":0,"expected_value":-0.8125,"expected_earnings":0,"bet_rt":885,"block":1,"trial_type":"card_game","trial_index":35,"time_elapsed":123258,"internal_node_id":"0.0-35.0"},{"type":"card_game","game_type":"straight_flush","losers":false,"see_result":true,"my_hand":"h_0_1_1_0","opponent_hand":"h_0_1_3_0","win":true,"tie":false,"bet":1,"earnings":5,"expected_value":0.28125,"expected_earnings":1.40625,"bet_rt":1748,"block":1,"trial_type":"card_game","trial_index":36,"time_elapsed":126578,"internal_node_id":"0.0-36.0"},{"type":"card_game","game_type":"straight_flush","losers":false,"see_result":true,"my_hand":"h_2_0_3_0","opponent_hand":"h_3_1_1_1","win":true,"tie":false,"bet":2,"earnings":10,"expected_value":0.90625,"expected_earnings":9.0625,"bet_rt":1215,"block":1,"trial_type":"card_game","trial_index":37,"time_elapsed":129393,"internal_node_id":"0.0-37.0"},{"type":"card_game","game_type":"straight_flush","losers":false,"see_result":true,"my_hand":"h_2_1_0_0","opponent_hand":"h_1_0_3_1","win":false,"tie":false,"bet":0,"earnings":0,"expected_value":-0.59375,"expected_earnings":0,"bet_rt":1568,"block":1,"trial_type":"card_game","trial_index":38,"time_elapsed":132541,"internal_node_id":"0.0-38.0"},{"rt":2306.4700000104494,"stimulus":"<p>You earned a performance bonus of 75 cents on this set of trials, plus $1.50 for making it to this phase.</p><p>Press any key to continue.</p>","key_press":86,"trial_type":"html-keyboard-response","trial_index":39,"time_elapsed":134850,"internal_node_id":"0.0-39.0"},{"rt":3308.660000038799,"stimulus":"<p>To test how well you understand the game, we'll now give you a series of hands where you won't see your results after you bet. You will just see your earnings at the end of the set of hands.</p><p>Press any key to continue.</p>","key_press":68,"trial_type":"html-keyboard-response","trial_index":40,"time_elapsed":138160,"internal_node_id":"0.0-40.0"},{"type":"card_game","game_type":"straight_flush","losers":false,"see_result":false,"my_hand":"h_3_0_1_0","opponent_hand":"h_3_1_2_1","win":false,"tie":false,"bet":0,"earnings":0,"expected_value":-0.09375,"expected_earnings":0,"bet_rt":2753,"block":2,"trial_type":"card_game","trial_index":41,"time_elapsed":141416,"internal_node_id":"0.0-41.0"},{"type":"card_game","game_type":"straight_flush","losers":false,"see_result":false,"my_hand":"h_2_1_3_1","opponent_hand":"h_2_1_1_1","win":true,"tie":false,"bet":2,"earnings":10,"expected_value":0.96875,"expected_earnings":9.6875,"bet_rt":1090,"block":2,"trial_type":"card_game","trial_index":42,"time_elapsed":143008,"internal_node_id":"0.0-42.0"},{"type":"card_game","game_type":"straight_flush","losers":false,"see_result":false,"my_hand":"h_1_0_3_0","opponent_hand":"h_2_0_2_1","win":true,"tie":false,"bet":0,"earnings":0,"expected_value":-0.09375,"expected_earnings":0,"bet_rt":1712,"block":2,"trial_type":"card_game","trial_index":43,"time_elapsed":145222,"internal_node_id":"0.0-43.0"},{"type":"card_game","game_type":"straight_flush","losers":false,"see_result":false,"my_hand":"h_3_1_1_0","opponent_hand":"h_3_0_2_0","win":false,"tie":false,"bet":0,"earnings":0,"expected_value":0.03125,"expected_earnings":0,"bet_rt":1410,"block":2,"trial_type":"card_game","trial_index":44,"time_elapsed":147134,"internal_node_id":"0.0-44.0"},{"type":"card_game","game_type":"straight_flush","losers":false,"see_result":false,"my_hand":"h_0_1_1_0","opponent_hand":"h_0_0_0_1","win":true,"tie":false,"bet":1,"earnings":5,"expected_value":0.28125,"expected_earnings":1.40625,"bet_rt":1588,"block":2,"trial_type":"card_game","trial_index":45,"time_elapsed":149226,"internal_node_id":"0.0-45.0"},{"type":"card_game","game_type":"straight_flush","losers":false,"see_result":false,"my_hand":"h_0_0_0_0","opponent_hand":"h_0_1_1_0","win":false,"tie":false,"bet":0,"earnings":0,"expected_value":-0.984375,"expected_earnings":0,"bet_rt":1133,"block":2,"trial_type":"card_game","trial_index":46,"time_elapsed":150862,"internal_node_id":"0.0-46.0"},{"type":"card_game","game_type":"straight_flush","losers":false,"see_result":false,"my_hand":"h_3_1_3_1","opponent_hand":"h_2_0_3_0","win":false,"tie":false,"bet":0,"earnings":0,"expected_value":0.234375,"expected_earnings":0,"bet_rt":948,"block":2,"trial_type":"card_game","trial_index":47,"time_elapsed":152312,"internal_node_id":"0.0-47.0"},{"type":"card_game","game_type":"straight_flush","losers":false,"see_result":false,"my_hand":"h_2_0_3_0","opponent_hand":"h_2_1_2_0","win":true,"tie":false,"bet":2,"earnings":10,"expected_value":0.90625,"expected_earnings":9.0625,"bet_rt":1134,"block":2,"trial_type":"card_game","trial_index":48,"time_elapsed":153948,"internal_node_id":"0.0-48.0"},{"type":"card_game","game_type":"straight_flush","losers":false,"see_result":false,"my_hand":"h_1_1_2_0","opponent_hand":"h_0_0_0_1","win":true,"tie":false,"bet":1,"earnings":5,"expected_value":0.40625,"expected_earnings":2.03125,"bet_rt":1666,"block":2,"trial_type":"card_game","trial_index":49,"time_elapsed":156117,"internal_node_id":"0.0-49.0"},{"type":"card_game","game_type":"straight_flush","losers":false,"see_result":false,"my_hand":"h_2_1_2_0","opponent_hand":"h_0_1_1_0","win":false,"tie":false,"bet":0,"earnings":0,"expected_value":-0.4375,"expected_earnings":0,"bet_rt":1113,"block":2,"trial_type":"card_game","trial_index":50,"time_elapsed":157732,"internal_node_id":"0.0-50.0"},{"type":"card_game","game_type":"straight_flush","losers":false,"see_result":false,"my_hand":"h_1_0_1_0","opponent_hand":"h_3_1_3_0","win":false,"tie":false,"bet":0,"earnings":0,"expected_value":-0.859375,"expected_earnings":0,"bet_rt":800,"block":2,"trial_type":"card_game","trial_index":51,"time_elapsed":159034,"internal_node_id":"0.0-51.0"},{"type":"card_game","game_type":"straight_flush","losers":false,"see_result":false,"my_hand":"h_0_1_1_1","opponent_hand":"h_1_0_2_1","win":true,"tie":false,"bet":1,"earnings":5,"expected_value":0.71875,"expected_earnings":3.59375,"bet_rt":1863,"block":2,"trial_type":"card_game","trial_index":52,"time_elapsed":161401,"internal_node_id":"0.0-52.0"},{"type":"card_game","game_type":"straight_flush","losers":false,"see_result":false,"my_hand":"h_2_1_2_0","opponent_hand":"h_0_0_1_1","win":false,"tie":false,"bet":0,"earnings":0,"expected_value":-0.4375,"expected_earnings":0,"bet_rt":915,"block":2,"trial_type":"card_game","trial_index":53,"time_elapsed":162818,"internal_node_id":"0.0-53.0"},{"type":"card_game","game_type":"straight_flush","losers":false,"see_result":false,"my_hand":"h_3_0_2_1","opponent_hand":"h_0_1_0_1","win":true,"tie":false,"bet":2,"earnings":10,"expected_value":0.53125,"expected_earnings":5.3125,"bet_rt":1206,"block":2,"trial_type":"card_game","trial_index":54,"time_elapsed":164526,"internal_node_id":"0.0-54.0"},{"type":"card_game","game_type":"straight_flush","losers":false,"see_result":false,"my_hand":"h_2_0_2_0","opponent_hand":"h_3_1_3_0","win":false,"tie":false,"bet":0,"earnings":0,"expected_value":-0.484375,"expected_earnings":0,"bet_rt":1037,"block":2,"trial_type":"card_game","trial_index":55,"time_elapsed":166065,"internal_node_id":"0.0-55.0"},{"type":"card_game","game_type":"straight_flush","losers":false,"see_result":false,"my_hand":"h_2_1_0_0","opponent_hand":"h_0_1_2_0","win":true,"tie":false,"bet":0,"earnings":0,"expected_value":-0.59375,"expected_earnings":0,"bet_rt":979,"block":2,"trial_type":"card_game","trial_index":56,"time_elapsed":167547,"internal_node_id":"0.0-56.0"},{"type":"card_game","game_type":"straight_flush","losers":false,"see_result":false,"my_hand":"h_3_1_2_0","opponent_hand":"h_0_0_2_1","win":true,"tie":false,"bet":2,"earnings":10,"expected_value":0.59375,"expected_earnings":5.9375,"bet_rt":1321,"block":2,"trial_type":"card_game","trial_index":57,"time_elapsed":169370,"internal_node_id":"0.0-57.0"},{"type":"card_game","game_type":"straight_flush","losers":false,"see_result":false,"my_hand":"h_3_1_2_1","opponent_hand":"h_1_1_3_0","win":true,"tie":false,"bet":2,"earnings":10,"expected_value":0.96875,"expected_earnings":9.6875,"bet_rt":910,"block":2,"trial_type":"card_game","trial_index":58,"time_elapsed":170782,"internal_node_id":"0.0-58.0"},{"type":"card_game","game_type":"straight_flush","losers":false,"see_result":false,"my_hand":"h_3_1_0_1","opponent_hand":"h_2_1_1_1","win":false,"tie":false,"bet":0,"earnings":0,"expected_value":-0.15625,"expected_earnings":0,"bet_rt":1487,"block":2,"trial_type":"card_game","trial_index":59,"time_elapsed":172771,"internal_node_id":"0.0-59.0"},{"type":"card_game","game_type":"straight_flush","losers":false,"see_result":false,"my_hand":"h_0_1_2_0","opponent_hand":"h_0_0_3_1","win":false,"tie":false,"bet":0,"earnings":0,"expected_value":-0.65625,"expected_earnings":0,"bet_rt":1016,"block":2,"trial_type":"card_game","trial_index":60,"time_elapsed":174289,"internal_node_id":"0.0-60.0"},{"type":"card_game","game_type":"straight_flush","losers":false,"see_result":false,"my_hand":"h_1_0_1_1","opponent_hand":"h_1_1_3_1","win":false,"tie":false,"bet":0,"earnings":0,"expected_value":-0.8125,"expected_earnings":0,"bet_rt":780,"block":2,"trial_type":"card_game","trial_index":61,"time_elapsed":175570,"internal_node_id":"0.0-61.0"},{"type":"card_game","game_type":"straight_flush","losers":false,"see_result":false,"my_hand":"h_1_0_2_1","opponent_hand":"h_2_1_0_1","win":true,"tie":false,"bet":1,"earnings":5,"expected_value":0.46875,"expected_earnings":2.34375,"bet_rt":1126,"block":2,"trial_type":"card_game","trial_index":62,"time_elapsed":177198,"internal_node_id":"0.0-62.0"},{"type":"card_game","game_type":"straight_flush","losers":false,"see_result":false,"my_hand":"h_2_1_0_0","opponent_hand":"h_3_1_1_0","win":false,"tie":false,"bet":0,"earnings":0,"expected_value":-0.59375,"expected_earnings":0,"bet_rt":1070,"block":2,"trial_type":"card_game","trial_index":63,"time_elapsed":178770,"internal_node_id":"0.0-63.0"},{"type":"card_game","game_type":"straight_flush","losers":false,"see_result":false,"my_hand":"h_3_1_1_0","opponent_hand":"h_3_0_3_1","win":false,"tie":false,"bet":0,"earnings":0,"expected_value":0.03125,"expected_earnings":0,"bet_rt":832,"block":2,"trial_type":"card_game","trial_index":64,"time_elapsed":180104,"internal_node_id":"0.0-64.0"},{"rt":3828.3350000274368,"stimulus":"<p>You earned a performance bonus of 50 cents on this set of trials.</p><p>You have earned a performance bonus of 125 cents over the experiment so far, plus $1.50 for making it to this phase.</p><p>Press any key to continue.</p>","key_press":86,"trial_type":"html-keyboard-response","trial_index":65,"time_elapsed":183962,"internal_node_id":"0.0-65.0"},{"rt":6288.249999983236,"stimulus":"<p><font color='red'><b>Now, we want you to try to lose the game! For the remainder of the experiment, if you bet and lose, you'll gain the amount you bet, and if you bet and win, you'll lose the amount you bet.</b></font></p><p>As before, you won't win or lose anything if you tie your opponent, or if you don't bet.</p><p>Press any key to continue.</p>","key_press":70,"trial_type":"html-keyboard-response","trial_index":66,"time_elapsed":190252,"internal_node_id":"0.0-66.0"},{"rt":5077.809999987949,"responses":"{\"Q0\":\"Bet and my hand loses.\"}","question_order":"[0]","response_trial_type":"attention_check","trial_type":"survey-multi-choice","trial_index":67,"time_elapsed":195331,"internal_node_id":"0.0-67.0"},{"rt":1660.120000015013,"stimulus":"<p>Great, now you get to play a few hands!</p><p>As before, you won't see your results after you bet. You will just see your earnings at the end of the set of hands.</p><p>Press any key to continue.</p>","key_press":70,"trial_type":"html-keyboard-response","trial_index":68,"time_elapsed":196992,"internal_node_id":"0.0-68.0"},{"type":"card_game","game_type":"straight_flush","losers":true,"see_result":false,"my_hand":"h_3_1_3_0","opponent_hand":"h_3_0_3_0","win":false,"tie":false,"bet":1,"earnings":-5,"expected_value":-0.1875,"expected_earnings":-0.9375,"bet_rt":5246,"block":3,"trial_type":"card_game","trial_index":69,"time_elapsed":202742,"internal_node_id":"0.0-69.0"},{"type":"card_game","game_type":"straight_flush","losers":true,"see_result":false,"my_hand":"h_0_0_0_0","opponent_hand":"h_0_1_2_1","win":true,"tie":false,"bet":2,"earnings":10,"expected_value":0.984375,"expected_earnings":9.84375,"bet_rt":1268,"block":3,"trial_type":"card_game","trial_index":70,"time_elapsed":204512,"internal_node_id":"0.0-70.0"},{"type":"card_game","game_type":"straight_flush","losers":true,"see_result":false,"my_hand":"h_3_1_2_1","opponent_hand":"h_2_1_2_1","win":false,"tie":false,"bet":0,"earnings":0,"expected_value":-0.96875,"expected_earnings":0,"bet_rt":1158,"block":3,"trial_type":"card_game","trial_index":71,"time_elapsed":206171,"internal_node_id":"0.0-71.0"},{"type":"card_game","game_type":"straight_flush","losers":true,"see_result":false,"my_hand":"h_3_0_2_1","opponent_hand":"h_3_1_1_1","win":false,"tie":false,"bet":0,"earnings":0,"expected_value":-0.53125,"expected_earnings":0,"bet_rt":919,"block":3,"trial_type":"card_game","trial_index":72,"time_elapsed":207591,"internal_node_id":"0.0-72.0"},{"type":"card_game","game_type":"straight_flush","losers":true,"see_result":false,"my_hand":"h_0_0_2_1","opponent_hand":"h_1_0_2_0","win":true,"tie":false,"bet":2,"earnings":10,"expected_value":0.59375,"expected_earnings":5.9375,"bet_rt":2134,"block":3,"trial_type":"card_game","trial_index":73,"time_elapsed":210227,"internal_node_id":"0.0-73.0"},{"type":"card_game","game_type":"straight_flush","losers":true,"see_result":false,"my_hand":"h_1_0_0_1","opponent_hand":"h_0_0_3_1","win":false,"tie":false,"bet":0,"earnings":0,"expected_value":-0.28125,"expected_earnings":0,"bet_rt":2451,"block":3,"trial_type":"card_game","trial_index":74,"time_elapsed":213179,"internal_node_id":"0.0-74.0"},{"type":"card_game","game_type":"straight_flush","losers":true,"see_result":false,"my_hand":"h_1_0_1_1","opponent_hand":"h_0_1_1_0","win":true,"tie":false,"bet":1,"earnings":5,"expected_value":0.8125,"expected_earnings":4.0625,"bet_rt":1705,"block":3,"trial_type":"card_game","trial_index":75,"time_elapsed":215387,"internal_node_id":"0.0-75.0"},{"type":"card_game","game_type":"straight_flush","losers":true,"see_result":false,"my_hand":"h_3_0_0_0","opponent_hand":"h_1_1_3_1","win":true,"tie":false,"bet":1,"earnings":5,"expected_value":0.34375,"expected_earnings":1.71875,"bet_rt":2273,"block":3,"trial_type":"card_game","trial_index":76,"time_elapsed":218161,"internal_node_id":"0.0-76.0"},{"type":"card_game","game_type":"straight_flush","losers":true,"see_result":false,"my_hand":"h_1_0_3_0","opponent_hand":"h_1_0_2_1","win":true,"tie":false,"bet":1,"earnings":5,"expected_value":0.09375,"expected_earnings":0.46875,"bet_rt":1368,"block":3,"trial_type":"card_game","trial_index":77,"time_elapsed":220032,"internal_node_id":"0.0-77.0"},{"type":"card_game","game_type":"straight_flush","losers":true,"see_result":false,"my_hand":"h_3_1_2_0","opponent_hand":"h_2_0_2_1","win":false,"tie":false,"bet":0,"earnings":0,"expected_value":-0.59375,"expected_earnings":0,"bet_rt":1145,"block":3,"trial_type":"card_game","trial_index":78,"time_elapsed":221679,"internal_node_id":"0.0-78.0"},{"type":"card_game","game_type":"straight_flush","losers":true,"see_result":false,"my_hand":"h_2_0_0_1","opponent_hand":"h_0_1_2_1","win":true,"tie":false,"bet":1,"earnings":5,"expected_value":0.65625,"expected_earnings":3.28125,"bet_rt":1495,"block":3,"trial_type":"card_game","trial_index":79,"time_elapsed":223677,"internal_node_id":"0.0-79.0"},{"type":"card_game","game_type":"straight_flush","losers":true,"see_result":false,"my_hand":"h_2_1_3_0","opponent_hand":"h_3_0_3_0","win":false,"tie":false,"bet":0,"earnings":0,"expected_value":-0.53125,"expected_earnings":0,"bet_rt":1002,"block":3,"trial_type":"card_game","trial_index":80,"time_elapsed":225180,"internal_node_id":"0.0-80.0"},{"type":"card_game","game_type":"straight_flush","losers":true,"see_result":false,"my_hand":"h_0_0_2_0","opponent_hand":"h_0_1_3_0","win":true,"tie":false,"bet":1,"earnings":5,"expected_value":0.71875,"expected_earnings":3.59375,"bet_rt":1319,"block":3,"trial_type":"card_game","trial_index":81,"time_elapsed":227000,"internal_node_id":"0.0-81.0"},{"type":"card_game","game_type":"straight_flush","losers":true,"see_result":false,"my_hand":"h_1_0_2_1","opponent_hand":"h_2_0_1_1","win":false,"tie":false,"bet":0,"earnings":0,"expected_value":-0.46875,"expected_earnings":0,"bet_rt":892,"block":3,"trial_type":"card_game","trial_index":82,"time_elapsed":228394,"internal_node_id":"0.0-82.0"},{"type":"card_game","game_type":"straight_flush","losers":true,"see_result":false,"my_hand":"h_0_1_3_1","opponent_hand":"h_1_1_2_0","win":true,"tie":false,"bet":1,"earnings":5,"expected_value":0.15625,"expected_earnings":0.78125,"bet_rt":2150,"block":3,"trial_type":"card_game","trial_index":83,"time_elapsed":231046,"internal_node_id":"0.0-83.0"},{"type":"card_game","game_type":"straight_flush","losers":true,"see_result":false,"my_hand":"h_3_0_3_1","opponent_hand":"h_3_0_1_1","win":false,"tie":false,"bet":0,"earnings":0,"expected_value":-0.1875,"expected_earnings":0,"bet_rt":1539,"block":3,"trial_type":"card_game","trial_index":84,"time_elapsed":233086,"internal_node_id":"0.0-84.0"},{"type":"card_game","game_type":"straight_flush","losers":true,"see_result":false,"my_hand":"h_2_1_1_1","opponent_hand":"h_3_0_2_0","win":true,"tie":false,"bet":0,"earnings":0,"expected_value":-0.84375,"expected_earnings":0,"bet_rt":1136,"block":3,"trial_type":"card_game","trial_index":85,"time_elapsed":234724,"internal_node_id":"0.0-85.0"},{"type":"card_game","game_type":"straight_flush","losers":true,"see_result":false,"my_hand":"h_0_0_3_0","opponent_hand":"h_2_1_2_1","win":false,"tie":false,"bet":1,"earnings":-5,"expected_value":0.34375,"expected_earnings":1.71875,"bet_rt":1081,"block":3,"trial_type":"card_game","trial_index":86,"time_elapsed":236307,"internal_node_id":"0.0-86.0"},{"type":"card_game","game_type":"straight_flush","losers":true,"see_result":false,"my_hand":"h_0_1_0_1","opponent_hand":"h_1_0_1_1","win":true,"tie":false,"bet":1,"earnings":5,"expected_value":0.890625,"expected_earnings":4.453125,"bet_rt":1193,"block":3,"trial_type":"card_game","trial_index":87,"time_elapsed":238001,"internal_node_id":"0.0-87.0"},{"type":"card_game","game_type":"straight_flush","losers":true,"see_result":false,"my_hand":"h_0_1_3_0","opponent_hand":"h_2_1_0_1","win":false,"tie":false,"bet":1,"earnings":-5,"expected_value":0.28125,"expected_earnings":1.40625,"bet_rt":2713,"block":3,"trial_type":"card_game","trial_index":88,"time_elapsed":241215,"internal_node_id":"0.0-88.0"},{"type":"card_game","game_type":"straight_flush","losers":true,"see_result":false,"my_hand":"h_0_1_1_0","opponent_hand":"h_1_0_1_1","win":false,"tie":false,"bet":0,"earnings":0,"expected_value":-0.28125,"expected_earnings":0,"bet_rt":757,"block":3,"trial_type":"card_game","trial_index":89,"time_elapsed":242475,"internal_node_id":"0.0-89.0"},{"type":"card_game","game_type":"straight_flush","losers":true,"see_result":false,"my_hand":"h_0_1_3_1","opponent_hand":"h_1_0_1_1","win":false,"tie":false,"bet":1,"earnings":-5,"expected_value":0.15625,"expected_earnings":0.78125,"bet_rt":1204,"block":3,"trial_type":"card_game","trial_index":90,"time_elapsed":244181,"internal_node_id":"0.0-90.0"},{"type":"card_game","game_type":"straight_flush","losers":true,"see_result":false,"my_hand":"h_3_1_2_1","opponent_hand":"h_0_1_2_1","win":false,"tie":false,"bet":0,"earnings":0,"expected_value":-0.96875,"expected_earnings":0,"bet_rt":975,"block":3,"trial_type":"card_game","trial_index":91,"time_elapsed":245658,"internal_node_id":"0.0-91.0"},{"type":"card_game","game_type":"straight_flush","losers":true,"see_result":false,"my_hand":"h_1_0_3_1","opponent_hand":"h_0_1_1_1","win":true,"tie":false,"bet":1,"earnings":5,"expected_value":-0.03125,"expected_earnings":-0.15625,"bet_rt":1660,"block":3,"trial_type":"card_game","trial_index":92,"time_elapsed":247818,"internal_node_id":"0.0-92.0"},{"rt":1970.9650000440888,"stimulus":"<p>You earned a performance bonus of 40 cents on this set of trials.</p><p>You have earned a performance bonus of 165 cents over the experiment so far, plus $1.50 for making it to this phase.</p><p>Press any key to continue.</p>","key_press":70,"trial_type":"html-keyboard-response","trial_index":93,"time_elapsed":249794,"internal_node_id":"0.0-93.0"},{"rt":1583.4949999698438,"stimulus":"<p>Great, we just have a few questions to ask you and then you'll be finished!</p><p>Press any key to continue.</p>","key_press":86,"trial_type":"html-keyboard-response","trial_index":94,"time_elapsed":251378,"internal_node_id":"0.0-94.0"},{"rt":10210.305000015069,"responses":"{\"Q0\":3,\"Q1\":4,\"Q2\":2}","question_order":"[0,1,2]","response_trial_type":"debrief","trial_type":"survey-likert","trial_index":95,"time_elapsed":261592,"internal_node_id":"0.0-95.0"},{"rt":13650.119999947492,"responses":"{\"Q0\":\"35-45\",\"Q1\":\"Bachelor's degree\",\"Q2\":\"Male\",\"Q3\":\"Other\"}","question_order":"[0,1,2,3]","response_trial_type":"demographics","trial_type":"survey-multi-choice","trial_index":96,"time_elapsed":275244,"internal_node_id":"0.0-96.0"},{"rt":2127.570000011474,"responses":"{\"Q0\":\"\"}","response_trial_type":"comments","trial_type":"survey-text","trial_index":97,"time_elapsed":277384,"internal_node_id":"0.0-97.0"}]