[{"view_history":"[{\"page_index\":0,\"viewing_time\":13707.969999988563},{\"page_index\":1,\"viewing_time\":16567.90500000352},{\"page_index\":2,\"viewing_time\":10266.769999987446},{\"page_index\":3,\"viewing_time\":16731.935000017984},{\"page_index\":4,\"viewing_time\":21586.84499998344},{\"page_index\":5,\"viewing_time\":16785.395000013523},{\"page_index\":6,\"viewing_time\":8459.18000000529},{\"page_index\":5,\"viewing_time\":12787.879999988945},{\"page_index\":4,\"viewing_time\":11663.629999995464},{\"page_index\":5,\"viewing_time\":3123.615000018617},{\"page_index\":6,\"viewing_time\":1008.1549999886192}]","rt":132690.38499999442,"trial_type":"instructions","trial_index":0,"time_elapsed":132701,"internal_node_id":"0.0-0.0"},{"type":"hand_comparison","hand_win":"h_1_0_2_1","hand_lose":"h_3_0_0_0","explanation":"Adjacent cards beat non-adjacent.","hand_indices":[0,1],"hand_choice":0,"correct":true,"rt":7291,"trial_type":"hand_comparison","trial_index":1,"time_elapsed":141999,"internal_node_id":"0.0-1.0"},{"type":"hand_comparison","hand_win":"h_0_0_1_0","hand_lose":"h_3_0_2_1","explanation":"Same-suit adjacent beats different suit.","hand_indices":[1,0],"hand_choice":1,"correct":true,"rt":4745,"trial_type":"hand_comparison","trial_index":2,"time_elapsed":148746,"internal_node_id":"0.0-2.0"},{"type":"hand_comparison","hand_win":"h_3_0_0_1","hand_lose":"h_2_0_2_1","explanation":"Highest card breaks ties.","hand_indices":[1,0],"hand_choice":1,"correct":true,"rt":21124,"trial_type":"hand_comparison","trial_index":3,"time_elapsed":171877,"internal_node_id":"0.0-3.0"},{"type":"hand_comparison","hand_win":"h_3_1_2_1","hand_lose":"h_2_0_3_0","explanation":"Black cards beat red cards if the numbers are tied.","hand_indices":[0,1],"hand_choice":0,"correct":true,"rt":4189,"trial_type":"hand_comparison","trial_index":4,"time_elapsed":178071,"internal_node_id":"0.0-4.0"},{"rt":7862.445000006119,"stimulus":"<p><b>Congratulations, you passed the test, and will get to proceed to phase 2!</b></p><p>You have earned a $1.50 bonus, and will be awarded a performance bonus based on your bets in the next phase.</p><p>Press any key to continue.</p>","key_press":32,"trial_type":"html-keyboard-response","trial_index":5,"time_elapsed":185945,"internal_node_id":"0.0-5.0"},{"rt":4255.424999981187,"stimulus":"<p>Now you get to play a few hands. After you bet, we'll show you your opponent's hand and how much you won (or lost), and at the end of these hands we'll tell you your total earnings.</p><p>Press any key to continue.</p>","key_press":32,"trial_type":"html-keyboard-response","trial_index":6,"time_elapsed":190202,"internal_node_id":"0.0-6.0"},{"type":"card_game","game_type":"straight_flush","losers":false,"see_result":true,"my_hand":"h_1_1_2_1","opponent_hand":"h_0_0_0_0","win":true,"tie":false,"bet":2,"earnings":10,"expected_value":0.84375,"expected_earnings":8.4375,"bet_rt":4311,"block":1,"trial_type":"card_game","trial_index":7,"time_elapsed":196108,"internal_node_id":"0.0-7.0"},{"type":"card_game","game_type":"straight_flush","losers":false,"see_result":true,"my_hand":"h_0_1_1_0","opponent_hand":"h_1_0_2_1","win":false,"tie":false,"bet":1,"earnings":-5,"expected_value":0.28125,"expected_earnings":1.40625,"bet_rt":2689,"block":1,"trial_type":"card_game","trial_index":8,"time_elapsed":200421,"internal_node_id":"0.0-8.0"},{"type":"card_game","game_type":"straight_flush","losers":false,"see_result":true,"my_hand":"h_2_0_3_1","opponent_hand":"h_3_0_2_1","win":true,"tie":false,"bet":1,"earnings":5,"expected_value":0.59375,"expected_earnings":2.96875,"bet_rt":1931,"block":1,"trial_type":"card_game","trial_index":9,"time_elapsed":203976,"internal_node_id":"0.0-9.0"},{"type":"card_game","game_type":"straight_flush","losers":false,"see_result":true,"my_hand":"h_0_1_0_0","opponent_hand":"h_0_1_2_0","win":false,"tie":false,"bet":0,"earnings":0,"expected_value":-0.9375,"expected_earnings":0,"bet_rt":3254,"block":1,"trial_type":"card_game","trial_index":10,"time_elapsed":208824,"internal_node_id":"0.0-10.0"},{"type":"card_game","game_type":"straight_flush","losers":false,"see_result":true,"my_hand":"h_3_0_1_1","opponent_hand":"h_2_1_2_1","win":true,"tie":false,"bet":0,"earnings":0,"expected_value":-0.03125,"expected_earnings":0,"bet_rt":2352,"block":1,"trial_type":"card_game","trial_index":11,"time_elapsed":212804,"internal_node_id":"0.0-11.0"},{"type":"card_game","game_type":"straight_flush","losers":false,"see_result":true,"my_hand":"h_2_1_2_1","opponent_hand":"h_2_1_3_1","win":false,"tie":false,"bet":1,"earnings":-5,"expected_value":-0.390625,"expected_earnings":-1.953125,"bet_rt":4218,"block":1,"trial_type":"card_game","trial_index":12,"time_elapsed":218600,"internal_node_id":"0.0-12.0"},{"type":"card_game","game_type":"straight_flush","losers":false,"see_result":true,"my_hand":"h_2_0_3_0","opponent_hand":"h_2_0_3_0","win":false,"tie":true,"bet":2,"earnings":0,"expected_value":0.90625,"expected_earnings":9.0625,"bet_rt":2819,"block":1,"trial_type":"card_game","trial_index":13,"time_elapsed":223009,"internal_node_id":"0.0-13.0"},{"type":"card_game","game_type":"straight_flush","losers":false,"see_result":true,"my_hand":"h_0_0_0_0","opponent_hand":"h_2_0_3_1","win":false,"tie":false,"bet":0,"earnings":0,"expected_value":-0.984375,"expected_earnings":0,"bet_rt":1913,"block":1,"trial_type":"card_game","trial_index":14,"time_elapsed":226516,"internal_node_id":"0.0-14.0"},{"type":"card_game","game_type":"straight_flush","losers":false,"see_result":true,"my_hand":"h_0_1_2_1","opponent_hand":"h_1_0_2_0","win":false,"tie":false,"bet":1,"earnings":-5,"expected_value":-0.53125,"expected_earnings":-2.65625,"bet_rt":3092,"block":1,"trial_type":"card_game","trial_index":15,"time_elapsed":231200,"internal_node_id":"0.0-15.0"},{"type":"card_game","game_type":"straight_flush","losers":false,"see_result":true,"my_hand":"h_0_1_1_0","opponent_hand":"h_1_0_2_0","win":false,"tie":false,"bet":1,"earnings":-5,"expected_value":0.28125,"expected_earnings":1.40625,"bet_rt":1842,"block":1,"trial_type":"card_game","trial_index":16,"time_elapsed":234627,"internal_node_id":"0.0-16.0"},{"type":"card_game","game_type":"straight_flush","losers":false,"see_result":true,"my_hand":"h_3_1_3_0","opponent_hand":"h_1_1_0_0","win":false,"tie":false,"bet":0,"earnings":0,"expected_value":0.1875,"expected_earnings":0,"bet_rt":1542,"block":1,"trial_type":"card_game","trial_index":17,"time_elapsed":237752,"internal_node_id":"0.0-17.0"},{"type":"card_game","game_type":"straight_flush","losers":false,"see_result":true,"my_hand":"h_1_1_2_0","opponent_hand":"h_2_0_1_1","win":false,"tie":true,"bet":1,"earnings":0,"expected_value":0.40625,"expected_earnings":2.03125,"bet_rt":1569,"block":1,"trial_type":"card_game","trial_index":18,"time_elapsed":240894,"internal_node_id":"0.0-18.0"},{"type":"card_game","game_type":"straight_flush","losers":false,"see_result":true,"my_hand":"h_0_1_3_0","opponent_hand":"h_2_0_3_1","win":false,"tie":false,"bet":0,"earnings":0,"expected_value":-0.28125,"expected_earnings":0,"bet_rt":1529,"block":1,"trial_type":"card_game","trial_index":19,"time_elapsed":244030,"internal_node_id":"0.0-19.0"},{"type":"card_game","game_type":"straight_flush","losers":false,"see_result":true,"my_hand":"h_0_1_3_0","opponent_hand":"h_1_1_3_1","win":false,"tie":false,"bet":0,"earnings":0,"expected_value":-0.28125,"expected_earnings":0,"bet_rt":1385,"block":1,"trial_type":"card_game","trial_index":20,"time_elapsed":246991,"internal_node_id":"0.0-20.0"},{"type":"card_game","game_type":"straight_flush","losers":false,"see_result":true,"my_hand":"h_1_0_3_0","opponent_hand":"h_2_0_2_1","win":true,"tie":false,"bet":0,"earnings":0,"expected_value":-0.09375,"expected_earnings":0,"bet_rt":1567,"block":1,"trial_type":"card_game","trial_index":21,"time_elapsed":250124,"internal_node_id":"0.0-21.0"},{"type":"card_game","game_type":"straight_flush","losers":false,"see_result":true,"my_hand":"h_1_0_3_1","opponent_hand":"h_3_1_3_1","win":false,"tie":false,"bet":0,"earnings":0,"expected_value":0.03125,"expected_earnings":0,"bet_rt":1223,"block":1,"trial_type":"card_game","trial_index":22,"time_elapsed":252927,"internal_node_id":"0.0-22.0"},{"type":"card_game","game_type":"straight_flush","losers":false,"see_result":true,"my_hand":"h_1_0_1_0","opponent_hand":"h_3_0_1_0","win":false,"tie":false,"bet":0,"earnings":0,"expected_value":-0.859375,"expected_earnings":0,"bet_rt":2553,"block":1,"trial_type":"card_game","trial_index":23,"time_elapsed":257080,"internal_node_id":"0.0-23.0"},{"type":"card_game","game_type":"straight_flush","losers":false,"see_result":true,"my_hand":"h_2_0_0_0","opponent_hand":"h_2_1_0_0","win":false,"tie":false,"bet":0,"earnings":0,"expected_value":-0.71875,"expected_earnings":0,"bet_rt":1633,"block":1,"trial_type":"card_game","trial_index":24,"time_elapsed":260328,"internal_node_id":"0.0-24.0"},{"type":"card_game","game_type":"straight_flush","losers":false,"see_result":true,"my_hand":"h_3_1_2_0","opponent_hand":"h_1_1_0_1","win":false,"tie":false,"bet":1,"earnings":-5,"expected_value":0.59375,"expected_earnings":2.96875,"bet_rt":2373,"block":1,"trial_type":"card_game","trial_index":25,"time_elapsed":264256,"internal_node_id":"0.0-25.0"},{"type":"card_game","game_type":"straight_flush","losers":false,"see_result":true,"my_hand":"h_2_1_2_0","opponent_hand":"h_3_0_1_1","win":false,"tie":false,"bet":0,"earnings":0,"expected_value":-0.4375,"expected_earnings":0,"bet_rt":1481,"block":1,"trial_type":"card_game","trial_index":26,"time_elapsed":267327,"internal_node_id":"0.0-26.0"},{"type":"card_game","game_type":"straight_flush","losers":false,"see_result":true,"my_hand":"h_2_1_1_1","opponent_hand":"h_0_0_3_1","win":true,"tie":false,"bet":2,"earnings":10,"expected_value":0.84375,"expected_earnings":8.4375,"bet_rt":1940,"block":1,"trial_type":"card_game","trial_index":27,"time_elapsed":270816,"internal_node_id":"0.0-27.0"},{"type":"card_game","game_type":"straight_flush","losers":false,"see_result":true,"my_hand":"h_2_0_0_1","opponent_hand":"h_0_1_0_1","win":true,"tie":false,"bet":0,"earnings":0,"expected_value":-0.65625,"expected_earnings":0,"bet_rt":2166,"block":1,"trial_type":"card_game","trial_index":28,"time_elapsed":274566,"internal_node_id":"0.0-28.0"},{"type":"card_game","game_type":"straight_flush","losers":false,"see_result":true,"my_hand":"h_3_1_2_1","opponent_hand":"h_2_0_1_0","win":true,"tie":false,"bet":2,"earnings":10,"expected_value":0.96875,"expected_earnings":9.6875,"bet_rt":1726,"block":1,"trial_type":"card_game","trial_index":29,"time_elapsed":277873,"internal_node_id":"0.0-29.0"},{"type":"card_game","game_type":"straight_flush","losers":false,"see_result":true,"my_hand":"h_3_1_0_1","opponent_hand":"h_1_1_2_1","win":false,"tie":false,"bet":1,"earnings":-5,"expected_value":-0.15625,"expected_earnings":-0.78125,"bet_rt":3253,"block":1,"trial_type":"card_game","trial_index":30,"time_elapsed":282717,"internal_node_id":"0.0-30.0"},{"type":"card_game","game_type":"straight_flush","losers":false,"see_result":true,"my_hand":"h_2_1_0_1","opponent_hand":"h_3_1_0_0","win":false,"tie":false,"bet":0,"earnings":0,"expected_value":-0.53125,"expected_earnings":0,"bet_rt":1798,"block":1,"trial_type":"card_game","trial_index":31,"time_elapsed":286092,"internal_node_id":"0.0-31.0"},{"type":"card_game","game_type":"straight_flush","losers":false,"see_result":true,"my_hand":"h_3_1_0_1","opponent_hand":"h_1_0_1_1","win":true,"tie":false,"bet":0,"earnings":0,"expected_value":-0.15625,"expected_earnings":0,"bet_rt":1253,"block":1,"trial_type":"card_game","trial_index":32,"time_elapsed":288934,"internal_node_id":"0.0-32.0"},{"type":"card_game","game_type":"straight_flush","losers":false,"see_result":true,"my_hand":"h_1_0_3_1","opponent_hand":"h_2_1_3_0","win":false,"tie":false,"bet":0,"earnings":0,"expected_value":0.03125,"expected_earnings":0,"bet_rt":1524,"block":1,"trial_type":"card_game","trial_index":33,"time_elapsed":292025,"internal_node_id":"0.0-33.0"},{"type":"card_game","game_type":"straight_flush","losers":false,"see_result":true,"my_hand":"h_1_1_2_0","opponent_hand":"h_0_1_3_1","win":true,"tie":false,"bet":1,"earnings":5,"expected_value":0.40625,"expected_earnings":2.03125,"bet_rt":2068,"block":1,"trial_type":"card_game","trial_index":34,"time_elapsed":295667,"internal_node_id":"0.0-34.0"},{"type":"card_game","game_type":"straight_flush","losers":false,"see_result":true,"my_hand":"h_0_0_1_0","opponent_hand":"h_2_0_1_0","win":false,"tie":false,"bet":1,"earnings":-5,"expected_value":0.65625,"expected_earnings":3.28125,"bet_rt":2189,"block":1,"trial_type":"card_game","trial_index":35,"time_elapsed":299439,"internal_node_id":"0.0-35.0"},{"type":"card_game","game_type":"straight_flush","losers":false,"see_result":true,"my_hand":"h_1_0_1_0","opponent_hand":"h_0_1_1_1","win":false,"tie":false,"bet":0,"earnings":0,"expected_value":-0.859375,"expected_earnings":0,"bet_rt":1300,"block":1,"trial_type":"card_game","trial_index":36,"time_elapsed":302328,"internal_node_id":"0.0-36.0"},{"type":"card_game","game_type":"straight_flush","losers":false,"see_result":true,"my_hand":"h_3_0_3_0","opponent_hand":"h_1_1_2_0","win":false,"tie":false,"bet":0,"earnings":0,"expected_value":0.140625,"expected_earnings":0,"bet_rt":1277,"block":1,"trial_type":"card_game","trial_index":37,"time_elapsed":305185,"internal_node_id":"0.0-37.0"},{"type":"card_game","game_type":"straight_flush","losers":false,"see_result":true,"my_hand":"h_0_0_1_0","opponent_hand":"h_1_0_3_0","win":true,"tie":false,"bet":1,"earnings":5,"expected_value":0.65625,"expected_earnings":3.28125,"bet_rt":1614,"block":1,"trial_type":"card_game","trial_index":38,"time_elapsed":308421,"internal_node_id":"0.0-38.0"},{"rt":3071.5199999976903,"stimulus":"<p>You earned a performance bonus of 10 cents on this set of trials, plus $1.50 for making it to this phase.</p><p>Press any key to continue.</p>","key_press":32,"trial_type":"html-keyboard-response","trial_index":39,"time_elapsed":311496,"internal_node_id":"0.0-39.0"},{"rt":7494.734999985667,"stimulus":"<p>To test how well you understand the game, we'll now give you a series of hands where you won't see your results after you bet. You will just see your earnings at the end of the set of hands.</p><p>Press any key to continue.</p>","key_press":32,"trial_type":"html-keyboard-response","trial_index":40,"time_elapsed":318992,"internal_node_id":"0.0-40.0"},{"type":"card_game","game_type":"straight_flush","losers":false,"see_result":false,"my_hand":"h_3_1_3_1","opponent_hand":"h_0_1_1_0","win":false,"tie":false,"bet":0,"earnings":0,"expected_value":0.234375,"expected_earnings":0,"bet_rt":3080,"block":2,"trial_type":"card_game","trial_index":41,"time_elapsed":322575,"internal_node_id":"0.0-41.0"},{"type":"card_game","game_type":"straight_flush","losers":false,"see_result":false,"my_hand":"h_3_0_2_1","opponent_hand":"h_3_1_1_0","win":true,"tie":false,"bet":1,"earnings":5,"expected_value":0.53125,"expected_earnings":2.65625,"bet_rt":1908,"block":2,"trial_type":"card_game","trial_index":42,"time_elapsed":324985,"internal_node_id":"0.0-42.0"},{"type":"card_game","game_type":"straight_flush","losers":false,"see_result":false,"my_hand":"h_3_0_3_1","opponent_hand":"h_1_0_0_0","win":false,"tie":false,"bet":0,"earnings":0,"expected_value":0.1875,"expected_earnings":0,"bet_rt":1331,"block":2,"trial_type":"card_game","trial_index":43,"time_elapsed":326821,"internal_node_id":"0.0-43.0"},{"type":"card_game","game_type":"straight_flush","losers":false,"see_result":false,"my_hand":"h_1_0_0_1","opponent_hand":"h_0_1_2_1","win":true,"tie":false,"bet":1,"earnings":5,"expected_value":0.28125,"expected_earnings":1.40625,"bet_rt":1640,"block":2,"trial_type":"card_game","trial_index":44,"time_elapsed":328963,"internal_node_id":"0.0-44.0"},{"type":"card_game","game_type":"straight_flush","losers":false,"see_result":false,"my_hand":"h_2_1_2_1","opponent_hand":"h_3_1_1_0","win":false,"tie":false,"bet":0,"earnings":0,"expected_value":-0.390625,"expected_earnings":0,"bet_rt":1812,"block":2,"trial_type":"card_game","trial_index":45,"time_elapsed":331277,"internal_node_id":"0.0-45.0"},{"type":"card_game","game_type":"straight_flush","losers":false,"see_result":false,"my_hand":"h_3_1_3_1","opponent_hand":"h_2_0_3_1","win":false,"tie":false,"bet":0,"earnings":0,"expected_value":0.234375,"expected_earnings":0,"bet_rt":998,"block":2,"trial_type":"card_game","trial_index":46,"time_elapsed":332777,"internal_node_id":"0.0-46.0"},{"type":"card_game","game_type":"straight_flush","losers":false,"see_result":false,"my_hand":"h_1_0_2_0","opponent_hand":"h_0_1_2_0","win":true,"tie":false,"bet":2,"earnings":10,"expected_value":0.78125,"expected_earnings":7.8125,"bet_rt":1201,"block":2,"trial_type":"card_game","trial_index":47,"time_elapsed":334479,"internal_node_id":"0.0-47.0"},{"type":"card_game","game_type":"straight_flush","losers":false,"see_result":false,"my_hand":"h_1_1_1_0","opponent_hand":"h_2_1_2_1","win":false,"tie":false,"bet":0,"earnings":0,"expected_value":-0.8125,"expected_earnings":0,"bet_rt":1759,"block":2,"trial_type":"card_game","trial_index":48,"time_elapsed":336740,"internal_node_id":"0.0-48.0"},{"type":"card_game","game_type":"straight_flush","losers":false,"see_result":false,"my_hand":"h_3_1_2_0","opponent_hand":"h_1_0_3_1","win":true,"tie":false,"bet":1,"earnings":5,"expected_value":0.59375,"expected_earnings":2.96875,"bet_rt":1540,"block":2,"trial_type":"card_game","trial_index":49,"time_elapsed":338786,"internal_node_id":"0.0-49.0"},{"type":"card_game","game_type":"straight_flush","losers":false,"see_result":false,"my_hand":"h_3_0_2_0","opponent_hand":"h_3_1_3_1","win":true,"tie":false,"bet":2,"earnings":10,"expected_value":0.90625,"expected_earnings":9.0625,"bet_rt":3963,"block":2,"trial_type":"card_game","trial_index":50,"time_elapsed":343250,"internal_node_id":"0.0-50.0"},{"type":"card_game","game_type":"straight_flush","losers":false,"see_result":false,"my_hand":"h_1_1_1_1","opponent_hand":"h_3_0_1_0","win":false,"tie":false,"bet":0,"earnings":0,"expected_value":-0.765625,"expected_earnings":0,"bet_rt":1322,"block":2,"trial_type":"card_game","trial_index":51,"time_elapsed":345076,"internal_node_id":"0.0-51.0"},{"type":"card_game","game_type":"straight_flush","losers":false,"see_result":false,"my_hand":"h_2_1_3_1","opponent_hand":"h_1_1_0_0","win":true,"tie":false,"bet":2,"earnings":10,"expected_value":0.96875,"expected_earnings":9.6875,"bet_rt":1466,"block":2,"trial_type":"card_game","trial_index":52,"time_elapsed":347043,"internal_node_id":"0.0-52.0"},{"type":"card_game","game_type":"straight_flush","losers":false,"see_result":false,"my_hand":"h_2_0_2_0","opponent_hand":"h_3_0_3_1","win":false,"tie":false,"bet":0,"earnings":0,"expected_value":-0.484375,"expected_earnings":0,"bet_rt":2481,"block":2,"trial_type":"card_game","trial_index":53,"time_elapsed":350029,"internal_node_id":"0.0-53.0"},{"type":"card_game","game_type":"straight_flush","losers":false,"see_result":false,"my_hand":"h_1_0_0_0","opponent_hand":"h_3_0_0_0","win":true,"tie":false,"bet":1,"earnings":5,"expected_value":0.65625,"expected_earnings":3.28125,"bet_rt":1280,"block":2,"trial_type":"card_game","trial_index":54,"time_elapsed":351812,"internal_node_id":"0.0-54.0"},{"type":"card_game","game_type":"straight_flush","losers":false,"see_result":false,"my_hand":"h_1_0_3_0","opponent_hand":"h_2_1_0_0","win":true,"tie":false,"bet":0,"earnings":0,"expected_value":-0.09375,"expected_earnings":0,"bet_rt":1194,"block":2,"trial_type":"card_game","trial_index":55,"time_elapsed":353508,"internal_node_id":"0.0-55.0"},{"type":"card_game","game_type":"straight_flush","losers":false,"see_result":false,"my_hand":"h_1_1_0_0","opponent_hand":"h_1_1_1_0","win":true,"tie":false,"bet":0,"earnings":0,"expected_value":0.34375,"expected_earnings":0,"bet_rt":5926,"block":2,"trial_type":"card_game","trial_index":56,"time_elapsed":359936,"internal_node_id":"0.0-56.0"},{"type":"card_game","game_type":"straight_flush","losers":false,"see_result":false,"my_hand":"h_0_0_3_1","opponent_hand":"h_2_0_2_1","win":true,"tie":false,"bet":0,"earnings":0,"expected_value":-0.21875,"expected_earnings":0,"bet_rt":1250,"block":2,"trial_type":"card_game","trial_index":57,"time_elapsed":361689,"internal_node_id":"0.0-57.0"},{"type":"card_game","game_type":"straight_flush","losers":false,"see_result":false,"my_hand":"h_0_1_3_0","opponent_hand":"h_1_0_1_1","win":true,"tie":false,"bet":0,"earnings":0,"expected_value":-0.28125,"expected_earnings":0,"bet_rt":948,"block":2,"trial_type":"card_game","trial_index":58,"time_elapsed":363138,"internal_node_id":"0.0-58.0"},{"type":"card_game","game_type":"straight_flush","losers":false,"see_result":false,"my_hand":"h_0_0_2_0","opponent_hand":"h_0_1_1_1","win":false,"tie":false,"bet":0,"earnings":0,"expected_value":-0.71875,"expected_earnings":0,"bet_rt":1701,"block":2,"trial_type":"card_game","trial_index":59,"time_elapsed":365344,"internal_node_id":"0.0-59.0"},{"type":"card_game","game_type":"straight_flush","losers":false,"see_result":false,"my_hand":"h_3_0_1_0","opponent_hand":"h_0_0_1_0","win":false,"tie":false,"bet":0,"earnings":0,"expected_value":-0.09375,"expected_earnings":0,"bet_rt":1032,"block":2,"trial_type":"card_game","trial_index":60,"time_elapsed":366877,"internal_node_id":"0.0-60.0"},{"type":"card_game","game_type":"straight_flush","losers":false,"see_result":false,"my_hand":"h_0_0_0_0","opponent_hand":"h_1_0_0_0","win":false,"tie":false,"bet":0,"earnings":0,"expected_value":-0.984375,"expected_earnings":0,"bet_rt":1116,"block":2,"trial_type":"card_game","trial_index":61,"time_elapsed":368493,"internal_node_id":"0.0-61.0"},{"type":"card_game","game_type":"straight_flush","losers":false,"see_result":false,"my_hand":"h_0_1_1_0","opponent_hand":"h_3_0_0_0","win":true,"tie":false,"bet":1,"earnings":5,"expected_value":0.28125,"expected_earnings":1.40625,"bet_rt":1283,"block":2,"trial_type":"card_game","trial_index":62,"time_elapsed":370280,"internal_node_id":"0.0-62.0"},{"type":"card_game","game_type":"straight_flush","losers":false,"see_result":false,"my_hand":"h_2_0_0_1","opponent_hand":"h_3_0_2_1","win":false,"tie":false,"bet":0,"earnings":0,"expected_value":-0.65625,"expected_earnings":0,"bet_rt":1122,"block":2,"trial_type":"card_game","trial_index":63,"time_elapsed":371904,"internal_node_id":"0.0-63.0"},{"type":"card_game","game_type":"straight_flush","losers":false,"see_result":false,"my_hand":"h_2_1_0_0","opponent_hand":"h_0_1_0_1","win":true,"tie":false,"bet":0,"earnings":0,"expected_value":-0.59375,"expected_earnings":0,"bet_rt":706,"block":2,"trial_type":"card_game","trial_index":64,"time_elapsed":373112,"internal_node_id":"0.0-64.0"},{"rt":7122.73499998264,"stimulus":"<p>You earned a performance bonus of 40 cents on this set of trials.</p><p>You have earned a performance bonus of 50 cents over the experiment so far, plus $1.50 for making it to this phase.</p><p>Press any key to continue.</p>","key_press":32,"trial_type":"html-keyboard-response","trial_index":65,"time_elapsed":380248,"internal_node_id":"0.0-65.0"},{"rt":7377.100000012433,"stimulus":"<p><font color='red'><b>Now, we want you to try to lose the game! For the remainder of the experiment, if you bet and lose, you'll gain the amount you bet, and if you bet and win, you'll lose the amount you bet.</b></font></p><p>As before, you won't win or lose anything if you tie your opponent, or if you don't bet.</p><p>Press any key to continue.</p>","key_press":32,"trial_type":"html-keyboard-response","trial_index":66,"time_elapsed":387626,"internal_node_id":"0.0-66.0"},{"rt":4816.824999987148,"responses":"{\"Q0\":\"Bet and my hand loses.\"}","question_order":"[0]","response_trial_type":"attention_check","trial_type":"survey-multi-choice","trial_index":67,"time_elapsed":392446,"internal_node_id":"0.0-67.0"},{"rt":2727.905000007013,"stimulus":"<p>Great, now you get to play a few hands!</p><p>As before, you won't see your results after you bet. You will just see your earnings at the end of the set of hands.</p><p>Press any key to continue.</p>","key_press":32,"trial_type":"html-keyboard-response","trial_index":68,"time_elapsed":395175,"internal_node_id":"0.0-68.0"},{"type":"card_game","game_type":"straight_flush","losers":true,"see_result":false,"my_hand":"h_0_1_0_1","opponent_hand":"h_2_0_0_0","win":true,"tie":false,"bet":2,"earnings":10,"expected_value":0.890625,"expected_earnings":8.90625,"bet_rt":1410,"block":3,"trial_type":"card_game","trial_index":69,"time_elapsed":397087,"internal_node_id":"0.0-69.0"},{"type":"card_game","game_type":"straight_flush","losers":true,"see_result":false,"my_hand":"h_0_1_1_1","opponent_hand":"h_2_1_2_1","win":false,"tie":false,"bet":0,"earnings":0,"expected_value":-0.71875,"expected_earnings":0,"bet_rt":1440,"block":3,"trial_type":"card_game","trial_index":70,"time_elapsed":399032,"internal_node_id":"0.0-70.0"},{"type":"card_game","game_type":"straight_flush","losers":true,"see_result":false,"my_hand":"h_2_1_0_1","opponent_hand":"h_3_0_3_0","win":true,"tie":false,"bet":2,"earnings":10,"expected_value":0.53125,"expected_earnings":5.3125,"bet_rt":1668,"block":3,"trial_type":"card_game","trial_index":71,"time_elapsed":401203,"internal_node_id":"0.0-71.0"},{"type":"card_game","game_type":"straight_flush","losers":true,"see_result":false,"my_hand":"h_2_0_2_1","opponent_hand":"h_2_1_3_1","win":true,"tie":false,"bet":2,"earnings":10,"expected_value":0.4375,"expected_earnings":4.375,"bet_rt":1921,"block":3,"trial_type":"card_game","trial_index":72,"time_elapsed":403630,"internal_node_id":"0.0-72.0"},{"type":"card_game","game_type":"straight_flush","losers":true,"see_result":false,"my_hand":"h_1_1_3_1","opponent_hand":"h_1_0_1_0","win":false,"tie":false,"bet":1,"earnings":-5,"expected_value":-0.09375,"expected_earnings":-0.46875,"bet_rt":2833,"block":3,"trial_type":"card_game","trial_index":73,"time_elapsed":406968,"internal_node_id":"0.0-73.0"},{"type":"card_game","game_type":"straight_flush","losers":true,"see_result":false,"my_hand":"h_0_1_2_0","opponent_hand":"h_0_1_1_1","win":true,"tie":false,"bet":1,"earnings":5,"expected_value":0.65625,"expected_earnings":3.28125,"bet_rt":1185,"block":3,"trial_type":"card_game","trial_index":74,"time_elapsed":408653,"internal_node_id":"0.0-74.0"},{"type":"card_game","game_type":"straight_flush","losers":true,"see_result":false,"my_hand":"h_1_1_2_1","opponent_hand":"h_3_1_0_0","win":false,"tie":false,"bet":0,"earnings":0,"expected_value":-0.84375,"expected_earnings":0,"bet_rt":1107,"block":3,"trial_type":"card_game","trial_index":75,"time_elapsed":410262,"internal_node_id":"0.0-75.0"},{"type":"card_game","game_type":"straight_flush","losers":true,"see_result":false,"my_hand":"h_2_1_3_1","opponent_hand":"h_0_0_3_1","win":false,"tie":false,"bet":0,"earnings":0,"expected_value":-0.96875,"expected_earnings":0,"bet_rt":795,"block":3,"trial_type":"card_game","trial_index":76,"time_elapsed":411560,"internal_node_id":"0.0-76.0"},{"type":"card_game","game_type":"straight_flush","losers":true,"see_result":false,"my_hand":"h_1_0_1_1","opponent_hand":"h_2_0_2_0","win":true,"tie":false,"bet":0,"earnings":0,"expected_value":0.8125,"expected_earnings":0,"bet_rt":1139,"block":3,"trial_type":"card_game","trial_index":77,"time_elapsed":413200,"internal_node_id":"0.0-77.0"},{"type":"card_game","game_type":"straight_flush","losers":true,"see_result":false,"my_hand":"h_0_0_2_0","opponent_hand":"h_2_1_1_1","win":true,"tie":false,"bet":0,"earnings":0,"expected_value":0.71875,"expected_earnings":0,"bet_rt":4030,"block":3,"trial_type":"card_game","trial_index":78,"time_elapsed":417731,"internal_node_id":"0.0-78.0"},{"type":"card_game","game_type":"straight_flush","losers":true,"see_result":false,"my_hand":"h_1_0_3_0","opponent_hand":"h_0_1_1_1","win":true,"tie":false,"bet":0,"earnings":0,"expected_value":0.09375,"expected_earnings":0,"bet_rt":2068,"block":3,"trial_type":"card_game","trial_index":79,"time_elapsed":420300,"internal_node_id":"0.0-79.0"},{"type":"card_game","game_type":"straight_flush","losers":true,"see_result":false,"my_hand":"h_3_1_1_0","opponent_hand":"h_3_1_2_0","win":true,"tie":false,"bet":2,"earnings":10,"expected_value":-0.03125,"expected_earnings":-0.3125,"bet_rt":6205,"block":3,"trial_type":"card_game","trial_index":80,"time_elapsed":427007,"internal_node_id":"0.0-80.0"},{"type":"card_game","game_type":"straight_flush","losers":true,"see_result":false,"my_hand":"h_1_0_2_1","opponent_hand":"h_3_1_1_0","win":false,"tie":false,"bet":0,"earnings":0,"expected_value":-0.46875,"expected_earnings":0,"bet_rt":1351,"block":3,"trial_type":"card_game","trial_index":81,"time_elapsed":428861,"internal_node_id":"0.0-81.0"},{"type":"card_game","game_type":"straight_flush","losers":true,"see_result":false,"my_hand":"h_2_0_2_1","opponent_hand":"h_0_1_1_1","win":true,"tie":false,"bet":2,"earnings":10,"expected_value":0.4375,"expected_earnings":4.375,"bet_rt":1197,"block":3,"trial_type":"card_game","trial_index":82,"time_elapsed":430562,"internal_node_id":"0.0-82.0"},{"type":"card_game","game_type":"straight_flush","losers":true,"see_result":false,"my_hand":"h_1_0_0_0","opponent_hand":"h_2_0_1_0","win":true,"tie":false,"bet":0,"earnings":0,"expected_value":-0.65625,"expected_earnings":0,"bet_rt":1047,"block":3,"trial_type":"card_game","trial_index":83,"time_elapsed":432110,"internal_node_id":"0.0-83.0"},{"type":"card_game","game_type":"straight_flush","losers":true,"see_result":false,"my_hand":"h_2_1_2_1","opponent_hand":"h_0_1_1_1","win":true,"tie":false,"bet":2,"earnings":10,"expected_value":0.390625,"expected_earnings":3.90625,"bet_rt":1516,"block":3,"trial_type":"card_game","trial_index":84,"time_elapsed":434129,"internal_node_id":"0.0-84.0"},{"type":"card_game","game_type":"straight_flush","losers":true,"see_result":false,"my_hand":"h_0_1_3_1","opponent_hand":"h_1_1_1_0","win":false,"tie":false,"bet":2,"earnings":-10,"expected_value":0.15625,"expected_earnings":1.5625,"bet_rt":865,"block":3,"trial_type":"card_game","trial_index":85,"time_elapsed":435496,"internal_node_id":"0.0-85.0"},{"type":"card_game","game_type":"straight_flush","losers":true,"see_result":false,"my_hand":"h_3_0_2_1","opponent_hand":"h_1_0_1_1","win":false,"tie":false,"bet":0,"earnings":0,"expected_value":-0.53125,"expected_earnings":0,"bet_rt":4413,"block":3,"trial_type":"card_game","trial_index":86,"time_elapsed":440411,"internal_node_id":"0.0-86.0"},{"type":"card_game","game_type":"straight_flush","losers":true,"see_result":false,"my_hand":"h_0_0_3_1","opponent_hand":"h_3_0_3_0","win":true,"tie":false,"bet":2,"earnings":10,"expected_value":0.21875,"expected_earnings":2.1875,"bet_rt":1547,"block":3,"trial_type":"card_game","trial_index":87,"time_elapsed":442460,"internal_node_id":"0.0-87.0"},{"type":"card_game","game_type":"straight_flush","losers":true,"see_result":false,"my_hand":"h_3_1_3_1","opponent_hand":"h_0_1_2_1","win":false,"tie":false,"bet":1,"earnings":-5,"expected_value":-0.234375,"expected_earnings":-1.171875,"bet_rt":1436,"block":3,"trial_type":"card_game","trial_index":88,"time_elapsed":444398,"internal_node_id":"0.0-88.0"},{"type":"card_game","game_type":"straight_flush","losers":true,"see_result":false,"my_hand":"h_2_0_1_0","opponent_hand":"h_3_0_2_0","win":true,"tie":false,"bet":0,"earnings":0,"expected_value":-0.78125,"expected_earnings":0,"bet_rt":1051,"block":3,"trial_type":"card_game","trial_index":89,"time_elapsed":445949,"internal_node_id":"0.0-89.0"},{"type":"card_game","game_type":"straight_flush","losers":true,"see_result":false,"my_hand":"h_2_1_1_0","opponent_hand":"h_0_0_2_1","win":false,"tie":false,"bet":0,"earnings":0,"expected_value":-0.46875,"expected_earnings":0,"bet_rt":1737,"block":3,"trial_type":"card_game","trial_index":90,"time_elapsed":448189,"internal_node_id":"0.0-90.0"},{"type":"card_game","game_type":"straight_flush","losers":true,"see_result":false,"my_hand":"h_1_1_1_1","opponent_hand":"h_1_0_1_0","win":false,"tie":false,"bet":2,"earnings":-10,"expected_value":0.765625,"expected_earnings":7.65625,"bet_rt":1962,"block":3,"trial_type":"card_game","trial_index":91,"time_elapsed":450657,"internal_node_id":"0.0-91.0"},{"type":"card_game","game_type":"straight_flush","losers":true,"see_result":false,"my_hand":"h_2_1_1_0","opponent_hand":"h_3_0_0_0","win":false,"tie":false,"bet":0,"earnings":0,"expected_value":-0.46875,"expected_earnings":0,"bet_rt":2309,"block":3,"trial_type":"card_game","trial_index":92,"time_elapsed":453467,"internal_node_id":"0.0-92.0"},{"rt":5316.059999982826,"stimulus":"<p>You earned a performance bonus of 40 cents on this set of trials.</p><p>You have earned a performance bonus of 90 cents over the experiment so far, plus $1.50 for making it to this phase.</p><p>Press any key to continue.</p>","key_press":32,"trial_type":"html-keyboard-response","trial_index":93,"time_elapsed":458785,"internal_node_id":"0.0-93.0"},{"rt":1016.1849999858532,"stimulus":"<p>Great, we just have a few questions to ask you and then you'll be finished!</p><p>Press any key to continue.</p>","key_press":32,"trial_type":"html-keyboard-response","trial_index":94,"time_elapsed":459802,"internal_node_id":"0.0-94.0"},{"rt":10645.575000002282,"responses":"{\"Q0\":3,\"Q1\":3,\"Q2\":3}","question_order":"[0,1,2]","response_trial_type":"debrief","trial_type":"survey-likert","trial_index":95,"time_elapsed":470454,"internal_node_id":"0.0-95.0"},{"rt":7589.884999993956,"responses":"{\"Q0\":\"<25\",\"Q1\":\"Some college\",\"Q2\":\"Female\",\"Q3\":\"White\"}","question_order":"[0,1,2,3]","response_trial_type":"demographics","trial_type":"survey-multi-choice","trial_index":96,"time_elapsed":478048,"internal_node_id":"0.0-96.0"},{"rt":5475.234999990789,"responses":"{\"Q0\":\"This was fun, thanks!\"}","response_trial_type":"comments","trial_type":"survey-text","trial_index":97,"time_elapsed":483526,"internal_node_id":"0.0-97.0"}]