[{"view_history":"[{\"page_index\":0,\"viewing_time\":5163.92999998061},{\"page_index\":1,\"viewing_time\":10175.8550000377},{\"page_index\":2,\"viewing_time\":7869.959999981802},{\"page_index\":3,\"viewing_time\":16370.729999965988},{\"page_index\":4,\"viewing_time\":20924.120000039693},{\"page_index\":5,\"viewing_time\":32718.944999971427},{\"page_index\":6,\"viewing_time\":7587.954999995418},{\"page_index\":5,\"viewing_time\":1277.5799999944866},{\"page_index\":4,\"viewing_time\":1849.2900000419468},{\"page_index\":3,\"viewing_time\":3797.8599999914877},{\"page_index\":2,\"viewing_time\":1009.6199999679811},{\"page_index\":3,\"viewing_time\":826.2100000283681},{\"page_index\":4,\"viewing_time\":9614.375000004657},{\"page_index\":5,\"viewing_time\":20974.63000001153},{\"page_index\":4,\"viewing_time\":1784.6499999868684},{\"page_index\":3,\"viewing_time\":1280.2149999770336},{\"page_index\":2,\"viewing_time\":1994.650000007823},{\"page_index\":3,\"viewing_time\":1590.5149999889545},{\"page_index\":4,\"viewing_time\":169.9500000104308},{\"page_index\":5,\"viewing_time\":5151.270000031218},{\"page_index\":6,\"viewing_time\":1300.1949999597855}]","rt":153433.16000001505,"trial_type":"instructions","trial_index":0,"time_elapsed":153465,"internal_node_id":"0.0-0.0"},{"type":"hand_comparison","hand_win":"h_1_0_2_1","hand_lose":"h_3_0_0_0","explanation":"Adjacent cards beat non-adjacent.","hand_indices":[0,1],"hand_choice":0,"correct":true,"rt":4624,"trial_type":"hand_comparison","trial_index":1,"time_elapsed":160096,"internal_node_id":"0.0-1.0"},{"type":"hand_comparison","hand_win":"h_0_0_1_0","hand_lose":"h_3_0_2_1","explanation":"Same-suit adjacent beats different suit.","hand_indices":[1,0],"hand_choice":1,"correct":true,"rt":7403,"trial_type":"hand_comparison","trial_index":2,"time_elapsed":169504,"internal_node_id":"0.0-2.0"},{"type":"hand_comparison","hand_win":"h_3_0_0_1","hand_lose":"h_2_0_2_1","explanation":"Highest card breaks ties.","hand_indices":[1,0],"hand_choice":1,"correct":true,"rt":19670,"trial_type":"hand_comparison","trial_index":3,"time_elapsed":191176,"internal_node_id":"0.0-3.0"},{"type":"hand_comparison","hand_win":"h_3_1_2_1","hand_lose":"h_2_0_3_0","explanation":"Black cards beat red cards if the numbers are tied.","hand_indices":[1,0],"hand_choice":1,"correct":true,"rt":8035,"trial_type":"hand_comparison","trial_index":4,"time_elapsed":201216,"internal_node_id":"0.0-4.0"},{"rt":4295.639999967534,"stimulus":"<p><b>Congratulations, you passed the test, and will get to proceed to phase 2!</b></p><p>You have earned a $1.50 bonus, and will be awarded a performance bonus based on your bets in the next phase.</p><p>Press any key to continue.</p>","key_press":32,"trial_type":"html-keyboard-response","trial_index":5,"time_elapsed":205514,"internal_node_id":"0.0-5.0"},{"rt":5790.320000029169,"stimulus":"<p>Now you get to play a few hands. After you bet, we'll show you your opponent's hand and how much you won (or lost), and at the end of these hands we'll tell you your total earnings.</p><p>Press any key to continue.</p>","key_press":32,"trial_type":"html-keyboard-response","trial_index":6,"time_elapsed":211304,"internal_node_id":"0.0-6.0"},{"type":"card_game","game_type":"straight_flush","losers":false,"see_result":true,"my_hand":"h_1_1_1_0","opponent_hand":"h_1_1_2_1","win":false,"tie":false,"bet":0,"earnings":0,"expected_value":-0.8125,"expected_earnings":0,"bet_rt":11524,"block":1,"trial_type":"card_game","trial_index":7,"time_elapsed":224372,"internal_node_id":"0.0-7.0"},{"type":"card_game","game_type":"straight_flush","losers":false,"see_result":true,"my_hand":"h_3_1_3_0","opponent_hand":"h_2_0_3_0","win":false,"tie":false,"bet":0,"earnings":0,"expected_value":0.1875,"expected_earnings":0,"bet_rt":5642,"block":1,"trial_type":"card_game","trial_index":8,"time_elapsed":231575,"internal_node_id":"0.0-8.0"},{"type":"card_game","game_type":"straight_flush","losers":false,"see_result":true,"my_hand":"h_1_1_0_1","opponent_hand":"h_2_0_2_1","win":true,"tie":false,"bet":1,"earnings":5,"expected_value":0.71875,"expected_earnings":3.59375,"bet_rt":3062,"block":1,"trial_type":"card_game","trial_index":9,"time_elapsed":236183,"internal_node_id":"0.0-9.0"},{"type":"card_game","game_type":"straight_flush","losers":false,"see_result":true,"my_hand":"h_3_0_2_0","opponent_hand":"h_3_1_3_1","win":true,"tie":false,"bet":2,"earnings":10,"expected_value":0.90625,"expected_earnings":9.0625,"bet_rt":1572,"block":1,"trial_type":"card_game","trial_index":10,"time_elapsed":239294,"internal_node_id":"0.0-10.0"},{"type":"card_game","game_type":"straight_flush","losers":false,"see_result":true,"my_hand":"h_3_1_2_0","opponent_hand":"h_2_1_3_1","win":false,"tie":false,"bet":1,"earnings":-5,"expected_value":0.59375,"expected_earnings":2.96875,"bet_rt":2032,"block":1,"trial_type":"card_game","trial_index":11,"time_elapsed":242877,"internal_node_id":"0.0-11.0"},{"type":"card_game","game_type":"straight_flush","losers":false,"see_result":true,"my_hand":"h_0_0_3_1","opponent_hand":"h_0_0_3_1","win":false,"tie":true,"bet":1,"earnings":0,"expected_value":-0.21875,"expected_earnings":-1.09375,"bet_rt":4404,"block":1,"trial_type":"card_game","trial_index":12,"time_elapsed":248829,"internal_node_id":"0.0-12.0"},{"type":"card_game","game_type":"straight_flush","losers":false,"see_result":true,"my_hand":"h_0_0_2_0","opponent_hand":"h_0_1_0_0","win":true,"tie":false,"bet":1,"earnings":5,"expected_value":-0.71875,"expected_earnings":-3.59375,"bet_rt":5682,"block":1,"trial_type":"card_game","trial_index":13,"time_elapsed":256054,"internal_node_id":"0.0-13.0"},{"type":"card_game","game_type":"straight_flush","losers":false,"see_result":true,"my_hand":"h_0_1_3_1","opponent_hand":"h_3_1_3_1","win":false,"tie":false,"bet":1,"earnings":-5,"expected_value":-0.15625,"expected_earnings":-0.78125,"bet_rt":1694,"block":1,"trial_type":"card_game","trial_index":14,"time_elapsed":259292,"internal_node_id":"0.0-14.0"},{"type":"card_game","game_type":"straight_flush","losers":false,"see_result":true,"my_hand":"h_1_1_0_0","opponent_hand":"h_3_0_1_0","win":true,"tie":false,"bet":0,"earnings":0,"expected_value":0.34375,"expected_earnings":0,"bet_rt":2455,"block":1,"trial_type":"card_game","trial_index":15,"time_elapsed":263301,"internal_node_id":"0.0-15.0"},{"type":"card_game","game_type":"straight_flush","losers":false,"see_result":true,"my_hand":"h_0_1_3_0","opponent_hand":"h_1_1_0_1","win":false,"tie":false,"bet":0,"earnings":0,"expected_value":-0.28125,"expected_earnings":0,"bet_rt":2979,"block":1,"trial_type":"card_game","trial_index":16,"time_elapsed":267826,"internal_node_id":"0.0-16.0"},{"type":"card_game","game_type":"straight_flush","losers":false,"see_result":true,"my_hand":"h_0_0_2_1","opponent_hand":"h_2_0_3_1","win":false,"tie":false,"bet":0,"earnings":0,"expected_value":-0.59375,"expected_earnings":0,"bet_rt":1601,"block":1,"trial_type":"card_game","trial_index":17,"time_elapsed":270984,"internal_node_id":"0.0-17.0"},{"type":"card_game","game_type":"straight_flush","losers":false,"see_result":true,"my_hand":"h_1_1_3_1","opponent_hand":"h_3_0_0_1","win":true,"tie":false,"bet":1,"earnings":5,"expected_value":0.09375,"expected_earnings":0.46875,"bet_rt":2687,"block":1,"trial_type":"card_game","trial_index":18,"time_elapsed":275215,"internal_node_id":"0.0-18.0"},{"type":"card_game","game_type":"straight_flush","losers":false,"see_result":true,"my_hand":"h_0_1_1_0","opponent_hand":"h_0_0_1_0","win":false,"tie":false,"bet":0,"earnings":0,"expected_value":0.28125,"expected_earnings":0,"bet_rt":2706,"block":1,"trial_type":"card_game","trial_index":19,"time_elapsed":279482,"internal_node_id":"0.0-19.0"},{"type":"card_game","game_type":"straight_flush","losers":false,"see_result":true,"my_hand":"h_2_1_1_0","opponent_hand":"h_2_0_3_1","win":false,"tie":false,"bet":0,"earnings":0,"expected_value":0.46875,"expected_earnings":0,"bet_rt":4342,"block":1,"trial_type":"card_game","trial_index":20,"time_elapsed":285378,"internal_node_id":"0.0-20.0"},{"type":"card_game","game_type":"straight_flush","losers":false,"see_result":true,"my_hand":"h_1_0_2_0","opponent_hand":"h_2_0_0_1","win":true,"tie":false,"bet":1,"earnings":5,"expected_value":0.78125,"expected_earnings":3.90625,"bet_rt":1424,"block":1,"trial_type":"card_game","trial_index":21,"time_elapsed":288364,"internal_node_id":"0.0-21.0"},{"type":"card_game","game_type":"straight_flush","losers":false,"see_result":true,"my_hand":"h_1_0_3_0","opponent_hand":"h_0_1_0_0","win":true,"tie":false,"bet":1,"earnings":5,"expected_value":-0.09375,"expected_earnings":-0.46875,"bet_rt":3444,"block":1,"trial_type":"card_game","trial_index":22,"time_elapsed":293356,"internal_node_id":"0.0-22.0"},{"type":"card_game","game_type":"straight_flush","losers":false,"see_result":true,"my_hand":"h_3_0_3_1","opponent_hand":"h_3_1_0_1","win":true,"tie":false,"bet":1,"earnings":5,"expected_value":0.1875,"expected_earnings":0.9375,"bet_rt":2356,"block":1,"trial_type":"card_game","trial_index":23,"time_elapsed":297273,"internal_node_id":"0.0-23.0"},{"type":"card_game","game_type":"straight_flush","losers":false,"see_result":true,"my_hand":"h_1_1_3_1","opponent_hand":"h_3_0_2_0","win":false,"tie":false,"bet":1,"earnings":-5,"expected_value":0.09375,"expected_earnings":0.46875,"bet_rt":2705,"block":1,"trial_type":"card_game","trial_index":24,"time_elapsed":301533,"internal_node_id":"0.0-24.0"},{"type":"card_game","game_type":"straight_flush","losers":false,"see_result":true,"my_hand":"h_2_0_2_1","opponent_hand":"h_0_1_3_1","win":false,"tie":false,"bet":2,"earnings":-10,"expected_value":-0.4375,"expected_earnings":-4.375,"bet_rt":2197,"block":1,"trial_type":"card_game","trial_index":25,"time_elapsed":305273,"internal_node_id":"0.0-25.0"},{"type":"card_game","game_type":"straight_flush","losers":false,"see_result":true,"my_hand":"h_1_0_1_1","opponent_hand":"h_1_1_0_1","win":false,"tie":false,"bet":0,"earnings":0,"expected_value":-0.8125,"expected_earnings":0,"bet_rt":2304,"block":1,"trial_type":"card_game","trial_index":26,"time_elapsed":309136,"internal_node_id":"0.0-26.0"},{"type":"card_game","game_type":"straight_flush","losers":false,"see_result":true,"my_hand":"h_0_1_2_1","opponent_hand":"h_1_1_1_0","win":true,"tie":false,"bet":0,"earnings":0,"expected_value":-0.53125,"expected_earnings":0,"bet_rt":1528,"block":1,"trial_type":"card_game","trial_index":27,"time_elapsed":312216,"internal_node_id":"0.0-27.0"},{"type":"card_game","game_type":"straight_flush","losers":false,"see_result":true,"my_hand":"h_0_0_0_0","opponent_hand":"h_0_1_3_0","win":false,"tie":false,"bet":0,"earnings":0,"expected_value":-0.984375,"expected_earnings":0,"bet_rt":4034,"block":1,"trial_type":"card_game","trial_index":28,"time_elapsed":317788,"internal_node_id":"0.0-28.0"},{"type":"card_game","game_type":"straight_flush","losers":false,"see_result":true,"my_hand":"h_3_0_0_0","opponent_hand":"h_3_0_3_1","win":false,"tie":false,"bet":1,"earnings":-5,"expected_value":-0.34375,"expected_earnings":-1.71875,"bet_rt":1534,"block":1,"trial_type":"card_game","trial_index":29,"time_elapsed":320874,"internal_node_id":"0.0-29.0"},{"type":"card_game","game_type":"straight_flush","losers":false,"see_result":true,"my_hand":"h_2_0_1_1","opponent_hand":"h_0_1_3_0","win":true,"tie":false,"bet":2,"earnings":10,"expected_value":0.40625,"expected_earnings":4.0625,"bet_rt":1613,"block":1,"trial_type":"card_game","trial_index":30,"time_elapsed":324030,"internal_node_id":"0.0-30.0"},{"type":"card_game","game_type":"straight_flush","losers":false,"see_result":true,"my_hand":"h_0_0_2_0","opponent_hand":"h_3_1_0_1","win":false,"tie":false,"bet":0,"earnings":0,"expected_value":-0.71875,"expected_earnings":0,"bet_rt":2455,"block":1,"trial_type":"card_game","trial_index":31,"time_elapsed":328023,"internal_node_id":"0.0-31.0"},{"type":"card_game","game_type":"straight_flush","losers":false,"see_result":true,"my_hand":"h_1_1_0_1","opponent_hand":"h_3_0_1_1","win":true,"tie":false,"bet":2,"earnings":10,"expected_value":0.71875,"expected_earnings":7.1875,"bet_rt":2315,"block":1,"trial_type":"card_game","trial_index":32,"time_elapsed":331876,"internal_node_id":"0.0-32.0"},{"type":"card_game","game_type":"straight_flush","losers":false,"see_result":true,"my_hand":"h_3_0_1_1","opponent_hand":"h_3_0_3_0","win":false,"tie":false,"bet":1,"earnings":-5,"expected_value":-0.03125,"expected_earnings":-0.15625,"bet_rt":6064,"block":1,"trial_type":"card_game","trial_index":33,"time_elapsed":339497,"internal_node_id":"0.0-33.0"},{"type":"card_game","game_type":"straight_flush","losers":false,"see_result":true,"my_hand":"h_2_1_2_0","opponent_hand":"h_0_0_2_0","win":true,"tie":false,"bet":0,"earnings":0,"expected_value":-0.4375,"expected_earnings":0,"bet_rt":1844,"block":1,"trial_type":"card_game","trial_index":34,"time_elapsed":342897,"internal_node_id":"0.0-34.0"},{"type":"card_game","game_type":"straight_flush","losers":false,"see_result":true,"my_hand":"h_3_1_2_0","opponent_hand":"h_0_0_1_1","win":true,"tie":false,"bet":1,"earnings":5,"expected_value":0.59375,"expected_earnings":2.96875,"bet_rt":2152,"block":1,"trial_type":"card_game","trial_index":35,"time_elapsed":346589,"internal_node_id":"0.0-35.0"},{"type":"card_game","game_type":"straight_flush","losers":false,"see_result":true,"my_hand":"h_2_0_1_0","opponent_hand":"h_1_0_0_1","win":true,"tie":false,"bet":2,"earnings":10,"expected_value":0.78125,"expected_earnings":7.8125,"bet_rt":1586,"block":1,"trial_type":"card_game","trial_index":36,"time_elapsed":349721,"internal_node_id":"0.0-36.0"},{"type":"card_game","game_type":"straight_flush","losers":false,"see_result":true,"my_hand":"h_2_0_3_0","opponent_hand":"h_2_0_1_0","win":true,"tie":false,"bet":2,"earnings":10,"expected_value":0.90625,"expected_earnings":9.0625,"bet_rt":1257,"block":1,"trial_type":"card_game","trial_index":37,"time_elapsed":352523,"internal_node_id":"0.0-37.0"},{"type":"card_game","game_type":"straight_flush","losers":false,"see_result":true,"my_hand":"h_0_0_0_0","opponent_hand":"h_2_1_1_0","win":false,"tie":false,"bet":0,"earnings":0,"expected_value":-0.984375,"expected_earnings":0,"bet_rt":31372,"block":1,"trial_type":"card_game","trial_index":38,"time_elapsed":385444,"internal_node_id":"0.0-38.0"},{"rt":3075.795000011567,"stimulus":"<p>You earned a performance bonus of 50 cents on this set of trials, plus $1.50 for making it to this phase.</p><p>Press any key to continue.</p>","key_press":32,"trial_type":"html-keyboard-response","trial_index":39,"time_elapsed":388523,"internal_node_id":"0.0-39.0"},{"rt":6558.41999995755,"stimulus":"<p>To test how well you understand the game, we'll now give you a series of hands where you won't see your results after you bet. You will just see your earnings at the end of the set of hands.</p><p>Press any key to continue.</p>","key_press":32,"trial_type":"html-keyboard-response","trial_index":40,"time_elapsed":395082,"internal_node_id":"0.0-40.0"},{"type":"card_game","game_type":"straight_flush","losers":false,"see_result":false,"my_hand":"h_3_1_0_1","opponent_hand":"h_1_0_3_0","win":false,"tie":false,"bet":1,"earnings":-5,"expected_value":-0.15625,"expected_earnings":-0.78125,"bet_rt":2303,"block":2,"trial_type":"card_game","trial_index":41,"time_elapsed":397891,"internal_node_id":"0.0-41.0"},{"type":"card_game","game_type":"straight_flush","losers":false,"see_result":false,"my_hand":"h_2_1_1_1","opponent_hand":"h_1_0_0_0","win":true,"tie":false,"bet":2,"earnings":10,"expected_value":0.84375,"expected_earnings":8.4375,"bet_rt":3437,"block":2,"trial_type":"card_game","trial_index":42,"time_elapsed":401833,"internal_node_id":"0.0-42.0"},{"type":"card_game","game_type":"straight_flush","losers":false,"see_result":false,"my_hand":"h_1_1_1_1","opponent_hand":"h_2_0_3_0","win":false,"tie":false,"bet":0,"earnings":0,"expected_value":-0.765625,"expected_earnings":0,"bet_rt":1734,"block":2,"trial_type":"card_game","trial_index":43,"time_elapsed":404071,"internal_node_id":"0.0-43.0"},{"type":"card_game","game_type":"straight_flush","losers":false,"see_result":false,"my_hand":"h_3_0_0_0","opponent_hand":"h_1_0_3_1","win":false,"tie":false,"bet":1,"earnings":-5,"expected_value":-0.34375,"expected_earnings":-1.71875,"bet_rt":1354,"block":2,"trial_type":"card_game","trial_index":44,"time_elapsed":405930,"internal_node_id":"0.0-44.0"},{"type":"card_game","game_type":"straight_flush","losers":false,"see_result":false,"my_hand":"h_1_1_2_0","opponent_hand":"h_3_1_0_1","win":true,"tie":false,"bet":2,"earnings":10,"expected_value":0.40625,"expected_earnings":4.0625,"bet_rt":3431,"block":2,"trial_type":"card_game","trial_index":45,"time_elapsed":409862,"internal_node_id":"0.0-45.0"},{"type":"card_game","game_type":"straight_flush","losers":false,"see_result":false,"my_hand":"h_3_1_3_1","opponent_hand":"h_0_1_2_0","win":true,"tie":false,"bet":0,"earnings":0,"expected_value":0.234375,"expected_earnings":0,"bet_rt":1795,"block":2,"trial_type":"card_game","trial_index":46,"time_elapsed":412163,"internal_node_id":"0.0-46.0"},{"type":"card_game","game_type":"straight_flush","losers":false,"see_result":false,"my_hand":"h_0_0_2_0","opponent_hand":"h_1_0_0_0","win":false,"tie":false,"bet":0,"earnings":0,"expected_value":-0.71875,"expected_earnings":0,"bet_rt":5087,"block":2,"trial_type":"card_game","trial_index":47,"time_elapsed":417753,"internal_node_id":"0.0-47.0"},{"type":"card_game","game_type":"straight_flush","losers":false,"see_result":false,"my_hand":"h_3_0_0_1","opponent_hand":"h_0_1_1_1","win":false,"tie":false,"bet":1,"earnings":-5,"expected_value":-0.28125,"expected_earnings":-1.40625,"bet_rt":1281,"block":2,"trial_type":"card_game","trial_index":48,"time_elapsed":419537,"internal_node_id":"0.0-48.0"},{"type":"card_game","game_type":"straight_flush","losers":false,"see_result":false,"my_hand":"h_3_0_3_1","opponent_hand":"h_0_1_2_0","win":true,"tie":false,"bet":1,"earnings":5,"expected_value":0.1875,"expected_earnings":0.9375,"bet_rt":3221,"block":2,"trial_type":"card_game","trial_index":49,"time_elapsed":423263,"internal_node_id":"0.0-49.0"},{"type":"card_game","game_type":"straight_flush","losers":false,"see_result":false,"my_hand":"h_1_0_2_0","opponent_hand":"h_3_0_3_0","win":true,"tie":false,"bet":2,"earnings":10,"expected_value":0.78125,"expected_earnings":7.8125,"bet_rt":1539,"block":2,"trial_type":"card_game","trial_index":50,"time_elapsed":425303,"internal_node_id":"0.0-50.0"},{"type":"card_game","game_type":"straight_flush","losers":false,"see_result":false,"my_hand":"h_2_1_3_0","opponent_hand":"h_0_1_2_0","win":true,"tie":false,"bet":1,"earnings":5,"expected_value":0.53125,"expected_earnings":2.65625,"bet_rt":1987,"block":2,"trial_type":"card_game","trial_index":51,"time_elapsed":427792,"internal_node_id":"0.0-51.0"},{"type":"card_game","game_type":"straight_flush","losers":false,"see_result":false,"my_hand":"h_2_1_2_0","opponent_hand":"h_2_1_3_1","win":false,"tie":false,"bet":0,"earnings":0,"expected_value":-0.4375,"expected_earnings":0,"bet_rt":1981,"block":2,"trial_type":"card_game","trial_index":52,"time_elapsed":430277,"internal_node_id":"0.0-52.0"},{"type":"card_game","game_type":"straight_flush","losers":false,"see_result":false,"my_hand":"h_3_0_2_1","opponent_hand":"h_0_0_2_1","win":true,"tie":false,"bet":2,"earnings":10,"expected_value":0.53125,"expected_earnings":5.3125,"bet_rt":3659,"block":2,"trial_type":"card_game","trial_index":53,"time_elapsed":434441,"internal_node_id":"0.0-53.0"},{"type":"card_game","game_type":"straight_flush","losers":false,"see_result":false,"my_hand":"h_0_0_2_1","opponent_hand":"h_1_1_3_1","win":false,"tie":false,"bet":0,"earnings":0,"expected_value":-0.59375,"expected_earnings":0,"bet_rt":1352,"block":2,"trial_type":"card_game","trial_index":54,"time_elapsed":436298,"internal_node_id":"0.0-54.0"},{"type":"card_game","game_type":"straight_flush","losers":false,"see_result":false,"my_hand":"h_0_1_3_1","opponent_hand":"h_1_1_3_0","win":false,"tie":false,"bet":1,"earnings":-5,"expected_value":-0.15625,"expected_earnings":-0.78125,"bet_rt":3875,"block":2,"trial_type":"card_game","trial_index":55,"time_elapsed":440676,"internal_node_id":"0.0-55.0"},{"type":"card_game","game_type":"straight_flush","losers":false,"see_result":false,"my_hand":"h_3_1_1_0","opponent_hand":"h_0_1_2_0","win":true,"tie":false,"bet":1,"earnings":5,"expected_value":0.03125,"expected_earnings":0.15625,"bet_rt":3206,"block":2,"trial_type":"card_game","trial_index":56,"time_elapsed":444385,"internal_node_id":"0.0-56.0"},{"type":"card_game","game_type":"straight_flush","losers":false,"see_result":false,"my_hand":"h_1_0_0_0","opponent_hand":"h_0_1_0_1","win":true,"tie":false,"bet":1,"earnings":5,"expected_value":0.65625,"expected_earnings":3.28125,"bet_rt":2494,"block":2,"trial_type":"card_game","trial_index":57,"time_elapsed":447382,"internal_node_id":"0.0-57.0"},{"type":"card_game","game_type":"straight_flush","losers":false,"see_result":false,"my_hand":"h_1_1_1_1","opponent_hand":"h_1_0_1_0","win":true,"tie":false,"bet":0,"earnings":0,"expected_value":-0.765625,"expected_earnings":0,"bet_rt":1186,"block":2,"trial_type":"card_game","trial_index":58,"time_elapsed":449073,"internal_node_id":"0.0-58.0"},{"type":"card_game","game_type":"straight_flush","losers":false,"see_result":false,"my_hand":"h_3_0_2_0","opponent_hand":"h_1_0_3_0","win":true,"tie":false,"bet":0,"earnings":0,"expected_value":0.90625,"expected_earnings":0,"bet_rt":5062,"block":2,"trial_type":"card_game","trial_index":59,"time_elapsed":454639,"internal_node_id":"0.0-59.0"},{"type":"card_game","game_type":"straight_flush","losers":false,"see_result":false,"my_hand":"h_3_0_1_0","opponent_hand":"h_0_1_1_1","win":false,"tie":false,"bet":0,"earnings":0,"expected_value":-0.09375,"expected_earnings":0,"bet_rt":9846,"block":2,"trial_type":"card_game","trial_index":60,"time_elapsed":464988,"internal_node_id":"0.0-60.0"},{"type":"card_game","game_type":"straight_flush","losers":false,"see_result":false,"my_hand":"h_0_0_0_1","opponent_hand":"h_2_1_3_1","win":false,"tie":false,"bet":0,"earnings":0,"expected_value":-0.9375,"expected_earnings":0,"bet_rt":1704,"block":2,"trial_type":"card_game","trial_index":61,"time_elapsed":467193,"internal_node_id":"0.0-61.0"},{"type":"card_game","game_type":"straight_flush","losers":false,"see_result":false,"my_hand":"h_1_1_2_0","opponent_hand":"h_3_0_3_0","win":true,"tie":false,"bet":1,"earnings":5,"expected_value":0.40625,"expected_earnings":2.03125,"bet_rt":17945,"block":2,"trial_type":"card_game","trial_index":62,"time_elapsed":485640,"internal_node_id":"0.0-62.0"},{"type":"card_game","game_type":"straight_flush","losers":false,"see_result":false,"my_hand":"h_2_1_0_1","opponent_hand":"h_3_1_2_0","win":false,"tie":false,"bet":0,"earnings":0,"expected_value":-0.53125,"expected_earnings":0,"bet_rt":2349,"block":2,"trial_type":"card_game","trial_index":63,"time_elapsed":488490,"internal_node_id":"0.0-63.0"},{"type":"card_game","game_type":"straight_flush","losers":false,"see_result":false,"my_hand":"h_1_1_0_0","opponent_hand":"h_3_1_3_1","win":true,"tie":false,"bet":1,"earnings":5,"expected_value":0.34375,"expected_earnings":1.71875,"bet_rt":1592,"block":2,"trial_type":"card_game","trial_index":64,"time_elapsed":490586,"internal_node_id":"0.0-64.0"},{"rt":2879.834999970626,"stimulus":"<p>You earned a performance bonus of 30 cents on this set of trials.</p><p>You have earned a performance bonus of 80 cents over the experiment so far, plus $1.50 for making it to this phase.</p><p>Press any key to continue.</p>","key_press":32,"trial_type":"html-keyboard-response","trial_index":65,"time_elapsed":493475,"internal_node_id":"0.0-65.0"},{"rt":8304.680000001099,"stimulus":"<p><font color='red'><b>Now, we want you to try to lose the game! For the remainder of the experiment, if you bet and lose, you'll gain the amount you bet, and if you bet and win, you'll lose the amount you bet.</b></font></p><p>As before, you won't win or lose anything if you tie your opponent, or if you don't bet.</p><p>Press any key to continue.</p>","key_press":32,"trial_type":"html-keyboard-response","trial_index":66,"time_elapsed":501781,"internal_node_id":"0.0-66.0"},{"rt":8262.105000030715,"responses":"{\"Q0\":\"Bet and my hand loses.\"}","question_order":"[0]","response_trial_type":"attention_check","trial_type":"survey-multi-choice","trial_index":67,"time_elapsed":510044,"internal_node_id":"0.0-67.0"},{"rt":4410.035000008065,"stimulus":"<p>Great, now you get to play a few hands!</p><p>As before, you won't see your results after you bet. You will just see your earnings at the end of the set of hands.</p><p>Press any key to continue.</p>","key_press":67,"trial_type":"html-keyboard-response","trial_index":68,"time_elapsed":514457,"internal_node_id":"0.0-68.0"},{"type":"card_game","game_type":"straight_flush","losers":true,"see_result":false,"my_hand":"h_3_1_0_1","opponent_hand":"h_2_1_2_0","win":false,"tie":false,"bet":1,"earnings":-5,"expected_value":0.15625,"expected_earnings":0.78125,"bet_rt":11019,"block":3,"trial_type":"card_game","trial_index":69,"time_elapsed":525978,"internal_node_id":"0.0-69.0"},{"type":"card_game","game_type":"straight_flush","losers":true,"see_result":false,"my_hand":"h_0_1_0_0","opponent_hand":"h_2_0_1_1","win":true,"tie":false,"bet":2,"earnings":10,"expected_value":0.9375,"expected_earnings":9.375,"bet_rt":3515,"block":3,"trial_type":"card_game","trial_index":70,"time_elapsed":529995,"internal_node_id":"0.0-70.0"},{"type":"card_game","game_type":"straight_flush","losers":true,"see_result":false,"my_hand":"h_2_1_3_0","opponent_hand":"h_0_0_2_0","win":false,"tie":false,"bet":0,"earnings":0,"expected_value":-0.53125,"expected_earnings":0,"bet_rt":2213,"block":3,"trial_type":"card_game","trial_index":71,"time_elapsed":532711,"internal_node_id":"0.0-71.0"},{"type":"card_game","game_type":"straight_flush","losers":true,"see_result":false,"my_hand":"h_0_0_2_1","opponent_hand":"h_2_0_2_0","win":true,"tie":false,"bet":1,"earnings":5,"expected_value":0.59375,"expected_earnings":2.96875,"bet_rt":6437,"block":3,"trial_type":"card_game","trial_index":72,"time_elapsed":539652,"internal_node_id":"0.0-72.0"},{"type":"card_game","game_type":"straight_flush","losers":true,"see_result":false,"my_hand":"h_2_1_2_0","opponent_hand":"h_2_1_3_0","win":true,"tie":false,"bet":0,"earnings":0,"expected_value":0.4375,"expected_earnings":0,"bet_rt":2024,"block":3,"trial_type":"card_game","trial_index":73,"time_elapsed":542178,"internal_node_id":"0.0-73.0"},{"type":"card_game","game_type":"straight_flush","losers":true,"see_result":false,"my_hand":"h_2_1_3_0","opponent_hand":"h_2_0_3_0","win":true,"tie":false,"bet":0,"earnings":0,"expected_value":-0.53125,"expected_earnings":0,"bet_rt":1845,"block":3,"trial_type":"card_game","trial_index":74,"time_elapsed":544525,"internal_node_id":"0.0-74.0"},{"type":"card_game","game_type":"straight_flush","losers":true,"see_result":false,"my_hand":"h_3_0_2_0","opponent_hand":"h_0_1_3_1","win":false,"tie":false,"bet":0,"earnings":0,"expected_value":-0.90625,"expected_earnings":0,"bet_rt":1880,"block":3,"trial_type":"card_game","trial_index":75,"time_elapsed":546908,"internal_node_id":"0.0-75.0"},{"type":"card_game","game_type":"straight_flush","losers":true,"see_result":false,"my_hand":"h_0_0_3_1","opponent_hand":"h_0_0_2_1","win":false,"tie":false,"bet":0,"earnings":0,"expected_value":0.21875,"expected_earnings":0,"bet_rt":6327,"block":3,"trial_type":"card_game","trial_index":76,"time_elapsed":553740,"internal_node_id":"0.0-76.0"},{"type":"card_game","game_type":"straight_flush","losers":true,"see_result":false,"my_hand":"h_0_0_1_1","opponent_hand":"h_0_0_3_0","win":false,"tie":false,"bet":0,"earnings":0,"expected_value":-0.34375,"expected_earnings":0,"bet_rt":4755,"block":3,"trial_type":"card_game","trial_index":77,"time_elapsed":558999,"internal_node_id":"0.0-77.0"},{"type":"card_game","game_type":"straight_flush","losers":true,"see_result":false,"my_hand":"h_0_0_1_0","opponent_hand":"h_3_1_1_1","win":false,"tie":false,"bet":2,"earnings":-10,"expected_value":-0.65625,"expected_earnings":-6.5625,"bet_rt":4592,"block":3,"trial_type":"card_game","trial_index":78,"time_elapsed":564091,"internal_node_id":"0.0-78.0"},{"type":"card_game","game_type":"straight_flush","losers":true,"see_result":false,"my_hand":"h_1_0_2_1","opponent_hand":"h_3_0_1_1","win":false,"tie":false,"bet":0,"earnings":0,"expected_value":-0.46875,"expected_earnings":0,"bet_rt":1405,"block":3,"trial_type":"card_game","trial_index":79,"time_elapsed":565999,"internal_node_id":"0.0-79.0"},{"type":"card_game","game_type":"straight_flush","losers":true,"see_result":false,"my_hand":"h_3_0_2_0","opponent_hand":"h_1_0_2_0","win":false,"tie":false,"bet":0,"earnings":0,"expected_value":-0.90625,"expected_earnings":0,"bet_rt":1006,"block":3,"trial_type":"card_game","trial_index":80,"time_elapsed":567507,"internal_node_id":"0.0-80.0"},{"type":"card_game","game_type":"straight_flush","losers":true,"see_result":false,"my_hand":"h_0_1_0_0","opponent_hand":"h_2_0_2_1","win":true,"tie":false,"bet":2,"earnings":10,"expected_value":0.9375,"expected_earnings":9.375,"bet_rt":2242,"block":3,"trial_type":"card_game","trial_index":81,"time_elapsed":570254,"internal_node_id":"0.0-81.0"},{"type":"card_game","game_type":"straight_flush","losers":true,"see_result":false,"my_hand":"h_1_1_3_1","opponent_hand":"h_2_0_0_1","win":false,"tie":false,"bet":0,"earnings":0,"expected_value":-0.09375,"expected_earnings":0,"bet_rt":3635,"block":3,"trial_type":"card_game","trial_index":82,"time_elapsed":574393,"internal_node_id":"0.0-82.0"},{"type":"card_game","game_type":"straight_flush","losers":true,"see_result":false,"my_hand":"h_2_0_3_0","opponent_hand":"h_1_1_1_0","win":false,"tie":false,"bet":0,"earnings":0,"expected_value":-0.90625,"expected_earnings":0,"bet_rt":2114,"block":3,"trial_type":"card_game","trial_index":83,"time_elapsed":577012,"internal_node_id":"0.0-83.0"},{"type":"card_game","game_type":"straight_flush","losers":true,"see_result":false,"my_hand":"h_3_1_0_0","opponent_hand":"h_3_1_3_1","win":true,"tie":false,"bet":1,"earnings":5,"expected_value":0.21875,"expected_earnings":1.09375,"bet_rt":2584,"block":3,"trial_type":"card_game","trial_index":84,"time_elapsed":580099,"internal_node_id":"0.0-84.0"},{"type":"card_game","game_type":"straight_flush","losers":true,"see_result":false,"my_hand":"h_3_0_0_0","opponent_hand":"h_1_1_3_1","win":true,"tie":false,"bet":1,"earnings":5,"expected_value":0.34375,"expected_earnings":1.71875,"bet_rt":2404,"block":3,"trial_type":"card_game","trial_index":85,"time_elapsed":583007,"internal_node_id":"0.0-85.0"},{"type":"card_game","game_type":"straight_flush","losers":true,"see_result":false,"my_hand":"h_3_1_1_0","opponent_hand":"h_2_1_2_1","win":false,"tie":false,"bet":0,"earnings":0,"expected_value":-0.03125,"expected_earnings":0,"bet_rt":3156,"block":3,"trial_type":"card_game","trial_index":86,"time_elapsed":586667,"internal_node_id":"0.0-86.0"},{"type":"card_game","game_type":"straight_flush","losers":true,"see_result":false,"my_hand":"h_0_1_1_0","opponent_hand":"h_2_1_2_1","win":false,"tie":false,"bet":0,"earnings":0,"expected_value":-0.28125,"expected_earnings":0,"bet_rt":1307,"block":3,"trial_type":"card_game","trial_index":87,"time_elapsed":588480,"internal_node_id":"0.0-87.0"},{"type":"card_game","game_type":"straight_flush","losers":true,"see_result":false,"my_hand":"h_0_0_2_0","opponent_hand":"h_1_1_2_0","win":true,"tie":false,"bet":1,"earnings":5,"expected_value":0.71875,"expected_earnings":3.59375,"bet_rt":2767,"block":3,"trial_type":"card_game","trial_index":88,"time_elapsed":591749,"internal_node_id":"0.0-88.0"},{"type":"card_game","game_type":"straight_flush","losers":true,"see_result":false,"my_hand":"h_2_1_0_0","opponent_hand":"h_3_1_1_0","win":true,"tie":false,"bet":0,"earnings":0,"expected_value":0.59375,"expected_earnings":0,"bet_rt":2747,"block":3,"trial_type":"card_game","trial_index":89,"time_elapsed":594999,"internal_node_id":"0.0-89.0"},{"type":"card_game","game_type":"straight_flush","losers":true,"see_result":false,"my_hand":"h_0_1_0_1","opponent_hand":"h_2_0_2_0","win":true,"tie":false,"bet":2,"earnings":10,"expected_value":0.890625,"expected_earnings":8.90625,"bet_rt":1492,"block":3,"trial_type":"card_game","trial_index":90,"time_elapsed":596995,"internal_node_id":"0.0-90.0"},{"type":"card_game","game_type":"straight_flush","losers":true,"see_result":false,"my_hand":"h_0_0_3_0","opponent_hand":"h_1_0_0_0","win":true,"tie":false,"bet":0,"earnings":0,"expected_value":0.34375,"expected_earnings":0,"bet_rt":5421,"block":3,"trial_type":"card_game","trial_index":91,"time_elapsed":602917,"internal_node_id":"0.0-91.0"},{"type":"card_game","game_type":"straight_flush","losers":true,"see_result":false,"my_hand":"h_3_1_1_0","opponent_hand":"h_3_1_0_0","win":false,"tie":false,"bet":0,"earnings":0,"expected_value":-0.03125,"expected_earnings":0,"bet_rt":1484,"block":3,"trial_type":"card_game","trial_index":92,"time_elapsed":604904,"internal_node_id":"0.0-92.0"},{"rt":4997.314999985974,"stimulus":"<p>You earned a performance bonus of 30 cents on this set of trials.</p><p>You have earned a performance bonus of 110 cents over the experiment so far, plus $1.50 for making it to this phase.</p><p>Press any key to continue.</p>","key_press":32,"trial_type":"html-keyboard-response","trial_index":93,"time_elapsed":609904,"internal_node_id":"0.0-93.0"},{"rt":942.879999987781,"stimulus":"<p>Great, we just have a few questions to ask you and then you'll be finished!</p><p>Press any key to continue.</p>","key_press":32,"trial_type":"html-keyboard-response","trial_index":94,"time_elapsed":610847,"internal_node_id":"0.0-94.0"},{"rt":9779.479999968316,"responses":"{\"Q0\":3,\"Q1\":2,\"Q2\":2}","question_order":"[0,1,2]","response_trial_type":"debrief","trial_type":"survey-likert","trial_index":95,"time_elapsed":620628,"internal_node_id":"0.0-95.0"},{"rt":11850.249999959487,"responses":"{\"Q0\":\"25-35\",\"Q1\":\"Bachelor's degree\",\"Q2\":\"Female\",\"Q3\":\"Asian\"}","question_order":"[0,1,2,3]","response_trial_type":"demographics","trial_type":"survey-multi-choice","trial_index":96,"time_elapsed":632482,"internal_node_id":"0.0-96.0"},{"rt":1868.2799999951385,"responses":"{\"Q0\":\"\"}","response_trial_type":"comments","trial_type":"survey-text","trial_index":97,"time_elapsed":634356,"internal_node_id":"0.0-97.0"}]